{
  "resourceType": "Bundle",
  "id": "9142ee3ff7990f826ada966f03da267e0fe662f73858158f5e868b772cd68730",
  "type": "transaction",
  "entry": [ {
    "fullUrl": "Patient/9142ee3ff7990f826ada966f03da267e0fe662f73858158f5e868b772cd68730",
    "resource": {
      "resourceType": "Patient",
      "id": "9142ee3ff7990f826ada966f03da267e0fe662f73858158f5e868b772cd68730",
      "meta": {
        "profile": [ "https://www.medizininformatik-initiative.de/fhir/core/modul-person/StructureDefinition/PatientPseudonymisiert" ]
      },
      "identifier": [ {
        "type": {
          "coding": [ {
            "system": "http://terminology.hl7.org/CodeSystem/v2-0203",
            "code": "MR",
            "display": "Medical record number"
          }, {
            "system": "http://terminology.hl7.org/CodeSystem/v3-ObservationValue",
            "code": "PSEUDED",
            "display": "pseudonymized"
          } ]
        },
        "system": "https://bzkf.github.io/obds-to-fhir/identifiers/patient-id",
        "value": "60"
      } ],
      "gender": "female",
      "birthDate": "1950-10-15",
      "deceasedDateTime": "2021-11-27",
      "address": [ {
        "type": "both",
        "postalCode": "74072",
        "country": "DE"
      } ]
    },
    "request": {
      "method": "PUT",
      "url": "Patient/9142ee3ff7990f826ada966f03da267e0fe662f73858158f5e868b772cd68730"
    }
  }, {
    "fullUrl": "Condition/57fe05a96c5aea16ea6ccf644f5da4afb7b73f8e9390e11bf7fff7a95d08edae",
    "resource": {
      "resourceType": "Condition",
      "id": "57fe05a96c5aea16ea6ccf644f5da4afb7b73f8e9390e11bf7fff7a95d08edae",
      "meta": {
        "profile": [ "https://www.medizininformatik-initiative.de/fhir/ext/modul-onko/StructureDefinition/mii-pr-onko-diagnose-primaertumor" ]
      },
      "extension": [ {
        "url": "https://www.medizininformatik-initiative.de/fhir/ext/modul-onko/StructureDefinition/mii-ex-onko-histology-morphology-behavior-icdo3",
        "valueCodeableConcept": {
          "coding": [ {
            "system": "http://terminology.hl7.org/CodeSystem/icd-o-3",
            "version": "31",
            "code": "8500/3"
          } ],
          "text": "Invasives duktales Karzinom o.n.A."
        }
      }, {
        "url": "http://hl7.org/fhir/StructureDefinition/condition-assertedDate",
        "valueDateTime": "2020-02-16"
      }, {
        "url": "http://hl7.org/fhir/StructureDefinition/condition-occurredFollowing",
        "valueReference": {
          "reference": "Condition/f8eaa21e15d667e3da84bc8e061ec9be96cbc36fd07cf63575e8626625d4f401"
        }
      } ],
      "identifier": [ {
        "system": "https://bzkf.github.io/obds-to-fhir/identifiers/primaerdiagnose-condition-id",
        "value": "60-601"
      } ],
      "verificationStatus": {
        "coding": [ {
          "system": "http://terminology.hl7.org/CodeSystem/condition-ver-status",
          "code": "confirmed"
        }, {
          "system": "https://www.medizininformatik-initiative.de/fhir/ext/modul-onko/CodeSystem/mii-cs-onko-primaertumor-diagnosesicherung",
          "code": "7"
        } ]
      },
      "code": {
        "coding": [ {
          "system": "http://fhir.de/CodeSystem/bfarm/icd-10-gm",
          "version": "2020",
          "code": "C50.4"
        } ]
      },
      "bodySite": [ {
        "coding": [ {
          "system": "http://terminology.hl7.org/CodeSystem/icd-o-3",
          "version": "33",
          "code": "C50.4"
        } ],
        "text": "Oberer äußerer Quadrant (Brust, Mamma)"
      }, {
        "coding": [ {
          "system": "https://www.medizininformatik-initiative.de/fhir/ext/modul-onko/CodeSystem/mii-cs-onko-seitenlokalisation",
          "code": "R"
        }, {
          "system": "http://snomed.info/sct",
          "version": "http://snomed.info/sct/900000000000207008/version/20250501",
          "code": "24028007",
          "display": "Right (qualifier value)"
        } ]
      } ],
      "subject": {
        "reference": "Patient/9142ee3ff7990f826ada966f03da267e0fe662f73858158f5e868b772cd68730"
      },
      "recordedDate": "2024-02-16",
      "evidence": [ {
        "detail": [ {
          "reference": "List/03f37796811559cbf7fec7785a8f835fae0b70c21dd5f04ea9c6d692ff47f233"
        } ]
      } ]
    },
    "request": {
      "method": "PUT",
      "url": "Condition/57fe05a96c5aea16ea6ccf644f5da4afb7b73f8e9390e11bf7fff7a95d08edae"
    }
  }, {
    "fullUrl": "Observation/5247729e16ad4a4a592c0f813d7115ccac8aa7d9bf42c03c48265c1917a86f1d",
    "resource": {
      "resourceType": "Observation",
      "id": "5247729e16ad4a4a592c0f813d7115ccac8aa7d9bf42c03c48265c1917a86f1d",
      "meta": {
        "profile": [ "https://www.medizininformatik-initiative.de/fhir/ext/modul-onko/StructureDefinition/mii-pr-onko-tod" ]
      },
      "identifier": [ {
        "system": "https://bzkf.github.io/obds-to-fhir/identifiers/tod-observation-id",
        "value": "Patient-9142ee3ff7990f826ada966f03da267e0fe662f73858158f5e868b772cd68730-Condition-57fe05a96c5aea16ea6ccf644f5da4afb7b73f8e9390e11bf7fff7a95d08edae"
      } ],
      "status": "final",
      "code": {
        "coding": [ {
          "system": "http://snomed.info/sct",
          "version": "http://snomed.info/sct/900000000000207008/version/20250501",
          "code": "184305005",
          "display": "Cause of death (observable entity)"
        } ]
      },
      "subject": {
        "reference": "Patient/9142ee3ff7990f826ada966f03da267e0fe662f73858158f5e868b772cd68730"
      },
      "focus": [ {
        "reference": "Condition/57fe05a96c5aea16ea6ccf644f5da4afb7b73f8e9390e11bf7fff7a95d08edae"
      } ],
      "effectiveDateTime": "2021-11-27",
      "interpretation": [ {
        "coding": [ {
          "system": "https://www.medizininformatik-initiative.de/fhir/ext/modul-onko/CodeSystem/mii-cs-onko-tod",
          "code": "J"
        } ]
      } ]
    },
    "request": {
      "method": "PUT",
      "url": "Observation/5247729e16ad4a4a592c0f813d7115ccac8aa7d9bf42c03c48265c1917a86f1d"
    }
  }, {
    "fullUrl": "Procedure/f9dd6936cc4f4e05f82a776a448666f6da719d7d5797239b06a5deaae7aab9a0",
    "resource": {
      "resourceType": "Procedure",
      "id": "f9dd6936cc4f4e05f82a776a448666f6da719d7d5797239b06a5deaae7aab9a0",
      "meta": {
        "profile": [ "https://www.medizininformatik-initiative.de/fhir/ext/modul-onko/StructureDefinition/mii-pr-onko-operation" ]
      },
      "extension": [ {
        "url": "https://www.medizininformatik-initiative.de/fhir/ext/modul-onko/StructureDefinition/mii-ex-onko-operation-intention",
        "valueCodeableConcept": {
          "coding": [ {
            "system": "https://www.medizininformatik-initiative.de/fhir/ext/modul-onko/CodeSystem/mii-cs-onko-intention",
            "code": "K"
          } ]
        }
      } ],
      "identifier": [ {
        "system": "https://bzkf.github.io/obds-to-fhir/identifiers/operation-procedure-id",
        "value": "141-5-870-a2"
      } ],
      "status": "completed",
      "category": {
        "coding": [ {
          "system": "http://snomed.info/sct",
          "version": "http://snomed.info/sct/900000000000207008/version/20250501",
          "code": "387713003",
          "display": "Surgical procedure"
        } ]
      },
      "code": {
        "coding": [ {
          "system": "http://fhir.de/CodeSystem/bfarm/ops",
          "version": "2020",
          "code": "5-870.a2"
        } ]
      },
      "subject": {
        "reference": "Patient/9142ee3ff7990f826ada966f03da267e0fe662f73858158f5e868b772cd68730"
      },
      "performedDateTime": "2020-03-02",
      "reasonReference": [ {
        "reference": "Condition/57fe05a96c5aea16ea6ccf644f5da4afb7b73f8e9390e11bf7fff7a95d08edae"
      } ],
      "outcome": {
        "coding": [ {
          "system": "https://www.medizininformatik-initiative.de/fhir/ext/modul-onko/CodeSystem/mii-cs-onko-residualstatus",
          "code": "R0"
        } ]
      }
    },
    "request": {
      "method": "PUT",
      "url": "Procedure/f9dd6936cc4f4e05f82a776a448666f6da719d7d5797239b06a5deaae7aab9a0"
    }
  }, {
    "fullUrl": "Procedure/bbc09770ccfa0bf300c3f3c0b4b005f5841dcc5a254d8190d83e054f1e2e3c9e",
    "resource": {
      "resourceType": "Procedure",
      "id": "bbc09770ccfa0bf300c3f3c0b4b005f5841dcc5a254d8190d83e054f1e2e3c9e",
      "meta": {
        "profile": [ "https://www.medizininformatik-initiative.de/fhir/ext/modul-onko/StructureDefinition/mii-pr-onko-operation" ]
      },
      "extension": [ {
        "url": "https://www.medizininformatik-initiative.de/fhir/ext/modul-onko/StructureDefinition/mii-ex-onko-operation-intention",
        "valueCodeableConcept": {
          "coding": [ {
            "system": "https://www.medizininformatik-initiative.de/fhir/ext/modul-onko/CodeSystem/mii-cs-onko-intention",
            "code": "K"
          } ]
        }
      } ],
      "identifier": [ {
        "system": "https://bzkf.github.io/obds-to-fhir/identifiers/operation-procedure-id",
        "value": "141-5-402-12"
      } ],
      "status": "completed",
      "category": {
        "coding": [ {
          "system": "http://snomed.info/sct",
          "version": "http://snomed.info/sct/900000000000207008/version/20250501",
          "code": "387713003",
          "display": "Surgical procedure"
        } ]
      },
      "code": {
        "coding": [ {
          "system": "http://fhir.de/CodeSystem/bfarm/ops",
          "version": "2020",
          "code": "5-402.12"
        } ]
      },
      "subject": {
        "reference": "Patient/9142ee3ff7990f826ada966f03da267e0fe662f73858158f5e868b772cd68730"
      },
      "performedDateTime": "2020-03-02",
      "reasonReference": [ {
        "reference": "Condition/57fe05a96c5aea16ea6ccf644f5da4afb7b73f8e9390e11bf7fff7a95d08edae"
      } ],
      "outcome": {
        "coding": [ {
          "system": "https://www.medizininformatik-initiative.de/fhir/ext/modul-onko/CodeSystem/mii-cs-onko-residualstatus",
          "code": "R0"
        } ]
      }
    },
    "request": {
      "method": "PUT",
      "url": "Procedure/bbc09770ccfa0bf300c3f3c0b4b005f5841dcc5a254d8190d83e054f1e2e3c9e"
    }
  }, {
    "fullUrl": "Observation/93d9505f2f1c6fb54202a03603290a65c50268b03881409350faf64c12a72af2",
    "resource": {
      "resourceType": "Observation",
      "id": "93d9505f2f1c6fb54202a03603290a65c50268b03881409350faf64c12a72af2",
      "meta": {
        "profile": [ "https://www.medizininformatik-initiative.de/fhir/ext/modul-onko/StructureDefinition/mii-pr-onko-residualstatus" ]
      },
      "identifier": [ {
        "system": "https://bzkf.github.io/obds-to-fhir/identifiers/residualstatus-observation-id",
        "value": "141"
      } ],
      "status": "final",
      "code": {
        "coding": [ {
          "system": "http://loinc.org",
          "version": "2.80",
          "code": "84892-9",
          "display": "Residual tumor classification [Type] in Cancer specimen"
        } ]
      },
      "subject": {
        "reference": "Patient/9142ee3ff7990f826ada966f03da267e0fe662f73858158f5e868b772cd68730"
      },
      "focus": [ {
        "reference": "Condition/57fe05a96c5aea16ea6ccf644f5da4afb7b73f8e9390e11bf7fff7a95d08edae"
      } ],
      "effectiveDateTime": "2020-03-02",
      "valueCodeableConcept": {
        "coding": [ {
          "system": "https://www.medizininformatik-initiative.de/fhir/ext/modul-onko/CodeSystem/mii-cs-onko-residualstatus",
          "code": "R0"
        } ]
      }
    },
    "request": {
      "method": "PUT",
      "url": "Observation/93d9505f2f1c6fb54202a03603290a65c50268b03881409350faf64c12a72af2"
    }
  }, {
    "fullUrl": "Specimen/dee3a3d1c2e8b0333f8fa20659b9ca3900b8a52cbf1a6ef602eba714f7b9b8db",
    "resource": {
      "resourceType": "Specimen",
      "id": "dee3a3d1c2e8b0333f8fa20659b9ca3900b8a52cbf1a6ef602eba714f7b9b8db",
      "meta": {
        "profile": [ "https://www.medizininformatik-initiative.de/fhir/ext/modul-onko/StructureDefinition/mii-pr-onko-specimen" ]
      },
      "identifier": [ {
        "system": "https://bzkf.github.io/obds-to-fhir/identifiers/histologie-specimen-id",
        "value": "262"
      } ],
      "accessionIdentifier": {
        "value": "H1967/2020"
      },
      "subject": {
        "reference": "Patient/9142ee3ff7990f826ada966f03da267e0fe662f73858158f5e868b772cd68730"
      },
      "collection": {
        "collectedDateTime": "2020-03-05"
      }
    },
    "request": {
      "method": "PUT",
      "url": "Specimen/dee3a3d1c2e8b0333f8fa20659b9ca3900b8a52cbf1a6ef602eba714f7b9b8db"
    }
  }, {
    "fullUrl": "Observation/f538540a6338b146132d774052ca5e9845566bd2bb199e3d80f1472a0b7f6134",
    "resource": {
      "resourceType": "Observation",
      "id": "f538540a6338b146132d774052ca5e9845566bd2bb199e3d80f1472a0b7f6134",
      "meta": {
        "profile": [ "https://www.medizininformatik-initiative.de/fhir/ext/modul-onko/StructureDefinition/mii-pr-onko-histologie-icdo3" ]
      },
      "identifier": [ {
        "system": "https://bzkf.github.io/obds-to-fhir/identifiers/verlaufshistologie-observation-id",
        "value": "262-ICDO3-8500-3"
      } ],
      "status": "final",
      "code": {
        "coding": [ {
          "system": "http://loinc.org",
          "version": "2.80",
          "code": "59847-4",
          "display": "Histology and Behavior ICD-O-3 Cancer"
        } ]
      },
      "subject": {
        "reference": "Patient/9142ee3ff7990f826ada966f03da267e0fe662f73858158f5e868b772cd68730"
      },
      "focus": [ {
        "reference": "Condition/57fe05a96c5aea16ea6ccf644f5da4afb7b73f8e9390e11bf7fff7a95d08edae"
      } ],
      "effectiveDateTime": "2020-03-05",
      "valueCodeableConcept": {
        "coding": [ {
          "system": "http://terminology.hl7.org/CodeSystem/icd-o-3",
          "version": "31",
          "code": "8500/3"
        } ],
        "text": "Invasives duktales Karzinom o.n.A."
      },
      "specimen": {
        "reference": "Specimen/dee3a3d1c2e8b0333f8fa20659b9ca3900b8a52cbf1a6ef602eba714f7b9b8db"
      }
    },
    "request": {
      "method": "PUT",
      "url": "Observation/f538540a6338b146132d774052ca5e9845566bd2bb199e3d80f1472a0b7f6134"
    }
  }, {
    "fullUrl": "Observation/00116f71918e2819a3ce67e8fe91cefac107beaf7183f1e6353ea7615dba4a0e",
    "resource": {
      "resourceType": "Observation",
      "id": "00116f71918e2819a3ce67e8fe91cefac107beaf7183f1e6353ea7615dba4a0e",
      "meta": {
        "profile": [ "https://www.medizininformatik-initiative.de/fhir/ext/modul-onko/StructureDefinition/mii-pr-onko-grading" ]
      },
      "identifier": [ {
        "system": "https://bzkf.github.io/obds-to-fhir/identifiers/grading-observation-id",
        "value": "262-grading"
      } ],
      "status": "final",
      "category": [ {
        "coding": [ {
          "system": "http://terminology.hl7.org/CodeSystem/observation-category",
          "code": "laboratory"
        } ]
      } ],
      "code": {
        "coding": [ {
          "system": "http://loinc.org",
          "version": "2.80",
          "code": "33732-9",
          "display": "Histology grade [Identifier] in Cancer specimen"
        }, {
          "system": "http://snomed.info/sct",
          "version": "http://snomed.info/sct/900000000000207008/version/20250501",
          "code": "371469007",
          "display": "Histologic grade of neoplasm (observable entity)"
        } ]
      },
      "subject": {
        "reference": "Patient/9142ee3ff7990f826ada966f03da267e0fe662f73858158f5e868b772cd68730"
      },
      "focus": [ {
        "reference": "Condition/57fe05a96c5aea16ea6ccf644f5da4afb7b73f8e9390e11bf7fff7a95d08edae"
      } ],
      "effectiveDateTime": "2020-03-05",
      "valueCodeableConcept": {
        "coding": [ {
          "system": "https://www.medizininformatik-initiative.de/fhir/ext/modul-onko/CodeSystem/mii-cs-onko-grading",
          "code": "2"
        } ]
      },
      "specimen": {
        "reference": "Specimen/dee3a3d1c2e8b0333f8fa20659b9ca3900b8a52cbf1a6ef602eba714f7b9b8db"
      }
    },
    "request": {
      "method": "PUT",
      "url": "Observation/00116f71918e2819a3ce67e8fe91cefac107beaf7183f1e6353ea7615dba4a0e"
    }
  }, {
    "fullUrl": "Observation/966c3fd07134c89a72bea44bb25a1905e00dceb39d3879546e48ceab1f98eb24",
    "resource": {
      "resourceType": "Observation",
      "id": "966c3fd07134c89a72bea44bb25a1905e00dceb39d3879546e48ceab1f98eb24",
      "meta": {
        "profile": [ "https://www.medizininformatik-initiative.de/fhir/ext/modul-onko/StructureDefinition/mii-pr-onko-anzahl-befallene-lymphknoten" ]
      },
      "identifier": [ {
        "system": "https://bzkf.github.io/obds-to-fhir/identifiers/lymphknotenuntersuchung-observation-id",
        "value": "262-befallen"
      } ],
      "status": "final",
      "category": [ {
        "coding": [ {
          "system": "http://terminology.hl7.org/CodeSystem/observation-category",
          "code": "laboratory"
        } ]
      } ],
      "code": {
        "coding": [ {
          "system": "http://loinc.org",
          "version": "2.80",
          "code": "21893-3"
        }, {
          "system": "http://snomed.info/sct",
          "version": "http://snomed.info/sct/900000000000207008/version/20250501",
          "code": "443527007"
        } ]
      },
      "subject": {
        "reference": "Patient/9142ee3ff7990f826ada966f03da267e0fe662f73858158f5e868b772cd68730"
      },
      "focus": [ {
        "reference": "Condition/57fe05a96c5aea16ea6ccf644f5da4afb7b73f8e9390e11bf7fff7a95d08edae"
      } ],
      "effectiveDateTime": "2020-03-05",
      "valueQuantity": {
        "value": 4,
        "unit": "#",
        "system": "http://unitsofmeasure.org",
        "code": "1"
      },
      "specimen": {
        "reference": "Specimen/dee3a3d1c2e8b0333f8fa20659b9ca3900b8a52cbf1a6ef602eba714f7b9b8db"
      }
    },
    "request": {
      "method": "PUT",
      "url": "Observation/966c3fd07134c89a72bea44bb25a1905e00dceb39d3879546e48ceab1f98eb24"
    }
  }, {
    "fullUrl": "Observation/b0fadca794f1ef6c6e381870990ecab65761f64284470724e65b8c5c5cb69fca",
    "resource": {
      "resourceType": "Observation",
      "id": "b0fadca794f1ef6c6e381870990ecab65761f64284470724e65b8c5c5cb69fca",
      "meta": {
        "profile": [ "https://www.medizininformatik-initiative.de/fhir/ext/modul-onko/StructureDefinition/mii-pr-onko-anzahl-untersuchte-lymphknoten" ]
      },
      "identifier": [ {
        "system": "https://bzkf.github.io/obds-to-fhir/identifiers/lymphknotenuntersuchung-observation-id",
        "value": "262-untersucht"
      } ],
      "status": "final",
      "category": [ {
        "coding": [ {
          "system": "http://terminology.hl7.org/CodeSystem/observation-category",
          "code": "laboratory"
        } ]
      } ],
      "code": {
        "coding": [ {
          "system": "http://loinc.org",
          "version": "2.80",
          "code": "21894-1"
        }, {
          "system": "http://snomed.info/sct",
          "version": "http://snomed.info/sct/900000000000207008/version/20250501",
          "code": "444025001"
        } ]
      },
      "subject": {
        "reference": "Patient/9142ee3ff7990f826ada966f03da267e0fe662f73858158f5e868b772cd68730"
      },
      "focus": [ {
        "reference": "Condition/57fe05a96c5aea16ea6ccf644f5da4afb7b73f8e9390e11bf7fff7a95d08edae"
      } ],
      "effectiveDateTime": "2020-03-05",
      "valueQuantity": {
        "value": 13,
        "unit": "#",
        "system": "http://unitsofmeasure.org",
        "code": "1"
      },
      "specimen": {
        "reference": "Specimen/dee3a3d1c2e8b0333f8fa20659b9ca3900b8a52cbf1a6ef602eba714f7b9b8db"
      }
    },
    "request": {
      "method": "PUT",
      "url": "Observation/b0fadca794f1ef6c6e381870990ecab65761f64284470724e65b8c5c5cb69fca"
    }
  }, {
    "fullUrl": "Observation/979a9da27672f52b0608af2247b9da8ff9dd482bb88b662eb1cf99b2f2391b1c",
    "resource": {
      "resourceType": "Observation",
      "id": "979a9da27672f52b0608af2247b9da8ff9dd482bb88b662eb1cf99b2f2391b1c",
      "meta": {
        "profile": [ "https://www.medizininformatik-initiative.de/fhir/ext/modul-onko/StructureDefinition/mii-pr-onko-tnm-t-kategorie" ]
      },
      "identifier": [ {
        "system": "https://bzkf.github.io/obds-to-fhir/identifiers/tnm-t-kategorie-observation-id",
        "value": "249-T"
      } ],
      "status": "final",
      "code": {
        "extension": [ {
          "url": "https://www.medizininformatik-initiative.de/fhir/ext/modul-onko/StructureDefinition/mii-ex-onko-tnm-cp-praefix",
          "valueCodeableConcept": {
            "coding": [ {
              "system": "https://www.uicc.org/resources/tnm",
              "code": "p"
            } ]
          }
        } ],
        "coding": [ {
          "system": "http://snomed.info/sct",
          "version": "http://snomed.info/sct/900000000000207008/version/20250501",
          "code": "384625004",
          "display": "pT category (observable entity)"
        } ]
      },
      "subject": {
        "reference": "Patient/9142ee3ff7990f826ada966f03da267e0fe662f73858158f5e868b772cd68730"
      },
      "focus": [ {
        "reference": "Condition/57fe05a96c5aea16ea6ccf644f5da4afb7b73f8e9390e11bf7fff7a95d08edae"
      } ],
      "effectiveDateTime": "2020-03-02",
      "valueCodeableConcept": {
        "coding": [ {
          "system": "https://www.uicc.org/resources/tnm",
          "code": "T2"
        } ]
      },
      "method": {
        "coding": [ {
          "system": "https://www.medizininformatik-initiative.de/fhir/ext/modul-onko/CodeSystem/mii-cs-onko-tnm-version",
          "code": "8"
        } ]
      }
    },
    "request": {
      "method": "PUT",
      "url": "Observation/979a9da27672f52b0608af2247b9da8ff9dd482bb88b662eb1cf99b2f2391b1c"
    }
  }, {
    "fullUrl": "Observation/42ddda9c2dc53c0aa30d182d5104174c4fda9e47c4814b1939fd7f4b0073c02b",
    "resource": {
      "resourceType": "Observation",
      "id": "42ddda9c2dc53c0aa30d182d5104174c4fda9e47c4814b1939fd7f4b0073c02b",
      "meta": {
        "profile": [ "https://www.medizininformatik-initiative.de/fhir/ext/modul-onko/StructureDefinition/mii-pr-onko-tnm-n-kategorie" ]
      },
      "identifier": [ {
        "system": "https://bzkf.github.io/obds-to-fhir/identifiers/tnm-n-kategorie-observation-id",
        "value": "249-N"
      } ],
      "status": "final",
      "code": {
        "extension": [ {
          "url": "https://www.medizininformatik-initiative.de/fhir/ext/modul-onko/StructureDefinition/mii-ex-onko-tnm-cp-praefix",
          "valueCodeableConcept": {
            "coding": [ {
              "system": "https://www.uicc.org/resources/tnm",
              "code": "p"
            } ]
          }
        } ],
        "coding": [ {
          "system": "http://snomed.info/sct",
          "version": "http://snomed.info/sct/900000000000207008/version/20250501",
          "code": "371494008",
          "display": "pN category (observable entity)"
        } ]
      },
      "subject": {
        "reference": "Patient/9142ee3ff7990f826ada966f03da267e0fe662f73858158f5e868b772cd68730"
      },
      "focus": [ {
        "reference": "Condition/57fe05a96c5aea16ea6ccf644f5da4afb7b73f8e9390e11bf7fff7a95d08edae"
      } ],
      "effectiveDateTime": "2020-03-02",
      "valueCodeableConcept": {
        "coding": [ {
          "system": "https://www.uicc.org/resources/tnm",
          "code": "N2"
        } ]
      },
      "method": {
        "coding": [ {
          "system": "https://www.medizininformatik-initiative.de/fhir/ext/modul-onko/CodeSystem/mii-cs-onko-tnm-version",
          "code": "8"
        } ]
      }
    },
    "request": {
      "method": "PUT",
      "url": "Observation/42ddda9c2dc53c0aa30d182d5104174c4fda9e47c4814b1939fd7f4b0073c02b"
    }
  }, {
    "fullUrl": "Observation/fee8e8ba14ff3d86de8e0b6d2903a14d8c64ea10ded31602d54a0ee472e0a68d",
    "resource": {
      "resourceType": "Observation",
      "id": "fee8e8ba14ff3d86de8e0b6d2903a14d8c64ea10ded31602d54a0ee472e0a68d",
      "meta": {
        "profile": [ "https://www.medizininformatik-initiative.de/fhir/ext/modul-onko/StructureDefinition/mii-pr-onko-tnm-m-kategorie" ]
      },
      "identifier": [ {
        "system": "https://bzkf.github.io/obds-to-fhir/identifiers/tnm-m-kategorie-observation-id",
        "value": "249-M"
      } ],
      "status": "final",
      "code": {
        "extension": [ {
          "url": "https://www.medizininformatik-initiative.de/fhir/ext/modul-onko/StructureDefinition/mii-ex-onko-tnm-cp-praefix",
          "valueCodeableConcept": {
            "coding": [ {
              "system": "https://www.uicc.org/resources/tnm",
              "code": "c"
            } ]
          }
        } ],
        "coding": [ {
          "system": "http://snomed.info/sct",
          "version": "http://snomed.info/sct/900000000000207008/version/20250501",
          "code": "399387003",
          "display": "cM category (observable entity)"
        } ]
      },
      "subject": {
        "reference": "Patient/9142ee3ff7990f826ada966f03da267e0fe662f73858158f5e868b772cd68730"
      },
      "focus": [ {
        "reference": "Condition/57fe05a96c5aea16ea6ccf644f5da4afb7b73f8e9390e11bf7fff7a95d08edae"
      } ],
      "effectiveDateTime": "2020-03-02",
      "valueCodeableConcept": {
        "coding": [ {
          "system": "https://www.uicc.org/resources/tnm",
          "code": "M0"
        } ]
      },
      "method": {
        "coding": [ {
          "system": "https://www.medizininformatik-initiative.de/fhir/ext/modul-onko/CodeSystem/mii-cs-onko-tnm-version",
          "code": "8"
        } ]
      }
    },
    "request": {
      "method": "PUT",
      "url": "Observation/fee8e8ba14ff3d86de8e0b6d2903a14d8c64ea10ded31602d54a0ee472e0a68d"
    }
  }, {
    "fullUrl": "Observation/30f4eb53f45ed6e87000602fda499b7b5bf892a18f9c63ffa6d7aa759948137a",
    "resource": {
      "resourceType": "Observation",
      "id": "30f4eb53f45ed6e87000602fda499b7b5bf892a18f9c63ffa6d7aa759948137a",
      "meta": {
        "profile": [ "https://www.medizininformatik-initiative.de/fhir/ext/modul-onko/StructureDefinition/mii-pr-onko-tnm-m-symbol" ]
      },
      "identifier": [ {
        "system": "https://bzkf.github.io/obds-to-fhir/identifiers/tnm-m-symbol-observation-id",
        "value": "249-m"
      } ],
      "status": "final",
      "code": {
        "coding": [ {
          "system": "http://loinc.org",
          "version": "2.80",
          "code": "42030-7",
          "display": "Multiple tumors reported as single primary Cancer"
        } ]
      },
      "subject": {
        "reference": "Patient/9142ee3ff7990f826ada966f03da267e0fe662f73858158f5e868b772cd68730"
      },
      "focus": [ {
        "reference": "Condition/57fe05a96c5aea16ea6ccf644f5da4afb7b73f8e9390e11bf7fff7a95d08edae"
      } ],
      "effectiveDateTime": "2020-03-02",
      "valueCodeableConcept": {
        "coding": [ {
          "system": "https://www.uicc.org/resources/tnm",
          "code": "2"
        } ]
      },
      "method": {
        "coding": [ {
          "system": "https://www.medizininformatik-initiative.de/fhir/ext/modul-onko/CodeSystem/mii-cs-onko-tnm-version",
          "code": "8"
        } ]
      }
    },
    "request": {
      "method": "PUT",
      "url": "Observation/30f4eb53f45ed6e87000602fda499b7b5bf892a18f9c63ffa6d7aa759948137a"
    }
  }, {
    "fullUrl": "Observation/759c4ef361794792f56cc529692034183c635d2841e54b18f932c9f5b7641fd7",
    "resource": {
      "resourceType": "Observation",
      "id": "759c4ef361794792f56cc529692034183c635d2841e54b18f932c9f5b7641fd7",
      "meta": {
        "profile": [ "https://www.medizininformatik-initiative.de/fhir/ext/modul-onko/StructureDefinition/mii-pr-onko-tnm-l-kategorie" ]
      },
      "identifier": [ {
        "system": "https://bzkf.github.io/obds-to-fhir/identifiers/tnm-l-kategorie-observation-id",
        "value": "249-L"
      } ],
      "status": "final",
      "code": {
        "coding": [ {
          "system": "http://snomed.info/sct",
          "version": "http://snomed.info/sct/900000000000207008/version/20250501",
          "code": "395715009",
          "display": "Status of lymphatic (small vessel) invasion by tumor (observable entity)"
        } ]
      },
      "subject": {
        "reference": "Patient/9142ee3ff7990f826ada966f03da267e0fe662f73858158f5e868b772cd68730"
      },
      "focus": [ {
        "reference": "Condition/57fe05a96c5aea16ea6ccf644f5da4afb7b73f8e9390e11bf7fff7a95d08edae"
      } ],
      "effectiveDateTime": "2020-03-02",
      "valueCodeableConcept": {
        "coding": [ {
          "system": "https://www.uicc.org/resources/tnm",
          "code": "L1"
        } ]
      },
      "method": {
        "coding": [ {
          "system": "https://www.medizininformatik-initiative.de/fhir/ext/modul-onko/CodeSystem/mii-cs-onko-tnm-version",
          "code": "8"
        } ]
      }
    },
    "request": {
      "method": "PUT",
      "url": "Observation/759c4ef361794792f56cc529692034183c635d2841e54b18f932c9f5b7641fd7"
    }
  }, {
    "fullUrl": "Observation/b01bb097c00725ce34dbf1a4d3a7e337f049a938ba9cd263cd81469537605fc5",
    "resource": {
      "resourceType": "Observation",
      "id": "b01bb097c00725ce34dbf1a4d3a7e337f049a938ba9cd263cd81469537605fc5",
      "meta": {
        "profile": [ "https://www.medizininformatik-initiative.de/fhir/ext/modul-onko/StructureDefinition/mii-pr-onko-tnm-pn-kategorie" ]
      },
      "identifier": [ {
        "system": "https://bzkf.github.io/obds-to-fhir/identifiers/tnm-pn-kategorie-observation-id",
        "value": "249-Pn"
      } ],
      "status": "final",
      "code": {
        "coding": [ {
          "system": "http://snomed.info/sct",
          "version": "http://snomed.info/sct/900000000000207008/version/20250501",
          "code": "371513001",
          "display": "Presence of direct invasion by primary malignant neoplasm to nerve (observable entity)"
        } ]
      },
      "subject": {
        "reference": "Patient/9142ee3ff7990f826ada966f03da267e0fe662f73858158f5e868b772cd68730"
      },
      "focus": [ {
        "reference": "Condition/57fe05a96c5aea16ea6ccf644f5da4afb7b73f8e9390e11bf7fff7a95d08edae"
      } ],
      "effectiveDateTime": "2020-03-02",
      "valueCodeableConcept": {
        "coding": [ {
          "system": "https://www.uicc.org/resources/tnm",
          "code": "Pn0"
        } ]
      },
      "method": {
        "coding": [ {
          "system": "https://www.medizininformatik-initiative.de/fhir/ext/modul-onko/CodeSystem/mii-cs-onko-tnm-version",
          "code": "8"
        } ]
      }
    },
    "request": {
      "method": "PUT",
      "url": "Observation/b01bb097c00725ce34dbf1a4d3a7e337f049a938ba9cd263cd81469537605fc5"
    }
  }, {
    "fullUrl": "Observation/4946f473c5546fabf2ab2adb186981a23e8324e6332fb60c0047c912831b5a40",
    "resource": {
      "resourceType": "Observation",
      "id": "4946f473c5546fabf2ab2adb186981a23e8324e6332fb60c0047c912831b5a40",
      "meta": {
        "profile": [ "https://www.medizininformatik-initiative.de/fhir/ext/modul-onko/StructureDefinition/mii-pr-onko-tnm-v-kategorie" ]
      },
      "identifier": [ {
        "system": "https://bzkf.github.io/obds-to-fhir/identifiers/tnm-v-kategorie-observation-id",
        "value": "249-V"
      } ],
      "status": "final",
      "code": {
        "coding": [ {
          "system": "http://snomed.info/sct",
          "version": "http://snomed.info/sct/900000000000207008/version/20250501",
          "code": "371493002",
          "display": "Status of venous (large vessel) invasion by tumor (observable entity)"
        } ]
      },
      "subject": {
        "reference": "Patient/9142ee3ff7990f826ada966f03da267e0fe662f73858158f5e868b772cd68730"
      },
      "focus": [ {
        "reference": "Condition/57fe05a96c5aea16ea6ccf644f5da4afb7b73f8e9390e11bf7fff7a95d08edae"
      } ],
      "effectiveDateTime": "2020-03-02",
      "valueCodeableConcept": {
        "coding": [ {
          "system": "https://www.uicc.org/resources/tnm",
          "code": "V0"
        } ]
      },
      "method": {
        "coding": [ {
          "system": "https://www.medizininformatik-initiative.de/fhir/ext/modul-onko/CodeSystem/mii-cs-onko-tnm-version",
          "code": "8"
        } ]
      }
    },
    "request": {
      "method": "PUT",
      "url": "Observation/4946f473c5546fabf2ab2adb186981a23e8324e6332fb60c0047c912831b5a40"
    }
  }, {
    "fullUrl": "Observation/9cc0d8877fcda3726e1a475018ca79ddce7a186561e8412dcfd97e1c00d92916",
    "resource": {
      "resourceType": "Observation",
      "id": "9cc0d8877fcda3726e1a475018ca79ddce7a186561e8412dcfd97e1c00d92916",
      "meta": {
        "profile": [ "https://www.medizininformatik-initiative.de/fhir/ext/modul-onko/StructureDefinition/mii-pr-onko-tnm-klassifikation" ]
      },
      "identifier": [ {
        "system": "https://bzkf.github.io/obds-to-fhir/identifiers/tnm-grouping-observation-id",
        "value": "249"
      } ],
      "status": "final",
      "code": {
        "coding": [ {
          "system": "http://snomed.info/sct",
          "version": "http://snomed.info/sct/900000000000207008/version/20250501",
          "code": "399390009",
          "display": "TNM stage grouping"
        } ]
      },
      "subject": {
        "reference": "Patient/9142ee3ff7990f826ada966f03da267e0fe662f73858158f5e868b772cd68730"
      },
      "focus": [ {
        "reference": "Condition/57fe05a96c5aea16ea6ccf644f5da4afb7b73f8e9390e11bf7fff7a95d08edae"
      } ],
      "effectiveDateTime": "2020-03-02",
      "valueCodeableConcept": {
        "coding": [ {
          "system": "https://www.uicc.org/resources/tnm",
          "code": "IIIA",
          "display": "Stadium IIIA"
        } ]
      },
      "method": {
        "coding": [ {
          "system": "https://www.medizininformatik-initiative.de/fhir/ext/modul-onko/CodeSystem/mii-cs-onko-tnm-version",
          "code": "8"
        } ]
      },
      "hasMember": [ {
        "reference": "Observation/979a9da27672f52b0608af2247b9da8ff9dd482bb88b662eb1cf99b2f2391b1c"
      }, {
        "reference": "Observation/42ddda9c2dc53c0aa30d182d5104174c4fda9e47c4814b1939fd7f4b0073c02b"
      }, {
        "reference": "Observation/fee8e8ba14ff3d86de8e0b6d2903a14d8c64ea10ded31602d54a0ee472e0a68d"
      }, {
        "reference": "Observation/30f4eb53f45ed6e87000602fda499b7b5bf892a18f9c63ffa6d7aa759948137a"
      }, {
        "reference": "Observation/759c4ef361794792f56cc529692034183c635d2841e54b18f932c9f5b7641fd7"
      }, {
        "reference": "Observation/b01bb097c00725ce34dbf1a4d3a7e337f049a938ba9cd263cd81469537605fc5"
      }, {
        "reference": "Observation/4946f473c5546fabf2ab2adb186981a23e8324e6332fb60c0047c912831b5a40"
      } ]
    },
    "request": {
      "method": "PUT",
      "url": "Observation/9cc0d8877fcda3726e1a475018ca79ddce7a186561e8412dcfd97e1c00d92916"
    }
  }, {
    "fullUrl": "Procedure/62afa263bbac5e3596026361c6c1eb089e535f59abd20ab64f4d303003261987",
    "resource": {
      "resourceType": "Procedure",
      "id": "62afa263bbac5e3596026361c6c1eb089e535f59abd20ab64f4d303003261987",
      "meta": {
        "profile": [ "https://www.medizininformatik-initiative.de/fhir/ext/modul-onko/StructureDefinition/mii-pr-onko-operation" ]
      },
      "extension": [ {
        "url": "https://www.medizininformatik-initiative.de/fhir/ext/modul-onko/StructureDefinition/mii-ex-onko-operation-intention",
        "valueCodeableConcept": {
          "coding": [ {
            "system": "https://www.medizininformatik-initiative.de/fhir/ext/modul-onko/CodeSystem/mii-cs-onko-intention",
            "code": "K"
          } ]
        }
      } ],
      "identifier": [ {
        "system": "https://bzkf.github.io/obds-to-fhir/identifiers/operation-procedure-id",
        "value": "142-5-870-a1"
      } ],
      "status": "completed",
      "category": {
        "coding": [ {
          "system": "http://snomed.info/sct",
          "version": "http://snomed.info/sct/900000000000207008/version/20250501",
          "code": "387713003",
          "display": "Surgical procedure"
        } ]
      },
      "code": {
        "coding": [ {
          "system": "http://fhir.de/CodeSystem/bfarm/ops",
          "version": "2020",
          "code": "5-870.a1"
        } ]
      },
      "subject": {
        "reference": "Patient/9142ee3ff7990f826ada966f03da267e0fe662f73858158f5e868b772cd68730"
      },
      "performedDateTime": "2020-02-20",
      "reasonReference": [ {
        "reference": "Condition/57fe05a96c5aea16ea6ccf644f5da4afb7b73f8e9390e11bf7fff7a95d08edae"
      } ],
      "outcome": {
        "coding": [ {
          "system": "https://www.medizininformatik-initiative.de/fhir/ext/modul-onko/CodeSystem/mii-cs-onko-residualstatus",
          "code": "R1"
        } ]
      }
    },
    "request": {
      "method": "PUT",
      "url": "Procedure/62afa263bbac5e3596026361c6c1eb089e535f59abd20ab64f4d303003261987"
    }
  }, {
    "fullUrl": "Procedure/e125ae510a913a44ed5a95c9731bb77d81d6ef0f348bfce4e9f14e10601e34ae",
    "resource": {
      "resourceType": "Procedure",
      "id": "e125ae510a913a44ed5a95c9731bb77d81d6ef0f348bfce4e9f14e10601e34ae",
      "meta": {
        "profile": [ "https://www.medizininformatik-initiative.de/fhir/ext/modul-onko/StructureDefinition/mii-pr-onko-operation" ]
      },
      "extension": [ {
        "url": "https://www.medizininformatik-initiative.de/fhir/ext/modul-onko/StructureDefinition/mii-ex-onko-operation-intention",
        "valueCodeableConcept": {
          "coding": [ {
            "system": "https://www.medizininformatik-initiative.de/fhir/ext/modul-onko/CodeSystem/mii-cs-onko-intention",
            "code": "K"
          } ]
        }
      } ],
      "identifier": [ {
        "system": "https://bzkf.github.io/obds-to-fhir/identifiers/operation-procedure-id",
        "value": "142-5-401-11"
      } ],
      "status": "completed",
      "category": {
        "coding": [ {
          "system": "http://snomed.info/sct",
          "version": "http://snomed.info/sct/900000000000207008/version/20250501",
          "code": "387713003",
          "display": "Surgical procedure"
        } ]
      },
      "code": {
        "coding": [ {
          "system": "http://fhir.de/CodeSystem/bfarm/ops",
          "version": "2020",
          "code": "5-401.11"
        } ]
      },
      "subject": {
        "reference": "Patient/9142ee3ff7990f826ada966f03da267e0fe662f73858158f5e868b772cd68730"
      },
      "performedDateTime": "2020-02-20",
      "reasonReference": [ {
        "reference": "Condition/57fe05a96c5aea16ea6ccf644f5da4afb7b73f8e9390e11bf7fff7a95d08edae"
      } ],
      "outcome": {
        "coding": [ {
          "system": "https://www.medizininformatik-initiative.de/fhir/ext/modul-onko/CodeSystem/mii-cs-onko-residualstatus",
          "code": "R1"
        } ]
      }
    },
    "request": {
      "method": "PUT",
      "url": "Procedure/e125ae510a913a44ed5a95c9731bb77d81d6ef0f348bfce4e9f14e10601e34ae"
    }
  }, {
    "fullUrl": "Specimen/066a06bc94fc147f2aaba0e9d8019347c986d28791d886920581b903769b23af",
    "resource": {
      "resourceType": "Specimen",
      "id": "066a06bc94fc147f2aaba0e9d8019347c986d28791d886920581b903769b23af",
      "meta": {
        "profile": [ "https://www.medizininformatik-initiative.de/fhir/ext/modul-onko/StructureDefinition/mii-pr-onko-specimen" ]
      },
      "identifier": [ {
        "system": "https://bzkf.github.io/obds-to-fhir/identifiers/histologie-specimen-id",
        "value": "263"
      } ],
      "accessionIdentifier": {
        "value": "H1823/2020"
      },
      "subject": {
        "reference": "Patient/9142ee3ff7990f826ada966f03da267e0fe662f73858158f5e868b772cd68730"
      },
      "collection": {
        "collectedDateTime": "2020-02-20"
      }
    },
    "request": {
      "method": "PUT",
      "url": "Specimen/066a06bc94fc147f2aaba0e9d8019347c986d28791d886920581b903769b23af"
    }
  }, {
    "fullUrl": "Observation/7ad413ed60e4bb360180785679bbbbb9005d5eab1b122dce6db6b4b389b5dd8c",
    "resource": {
      "resourceType": "Observation",
      "id": "7ad413ed60e4bb360180785679bbbbb9005d5eab1b122dce6db6b4b389b5dd8c",
      "meta": {
        "profile": [ "https://www.medizininformatik-initiative.de/fhir/ext/modul-onko/StructureDefinition/mii-pr-onko-histologie-icdo3" ]
      },
      "identifier": [ {
        "system": "https://bzkf.github.io/obds-to-fhir/identifiers/verlaufshistologie-observation-id",
        "value": "263-ICDO3-8500-3"
      } ],
      "status": "final",
      "code": {
        "coding": [ {
          "system": "http://loinc.org",
          "version": "2.80",
          "code": "59847-4",
          "display": "Histology and Behavior ICD-O-3 Cancer"
        } ]
      },
      "subject": {
        "reference": "Patient/9142ee3ff7990f826ada966f03da267e0fe662f73858158f5e868b772cd68730"
      },
      "focus": [ {
        "reference": "Condition/57fe05a96c5aea16ea6ccf644f5da4afb7b73f8e9390e11bf7fff7a95d08edae"
      } ],
      "effectiveDateTime": "2020-02-20",
      "valueCodeableConcept": {
        "coding": [ {
          "system": "http://terminology.hl7.org/CodeSystem/icd-o-3",
          "version": "31",
          "code": "8500/3"
        } ],
        "text": "Invasives duktales Karzinom o.n.A."
      },
      "specimen": {
        "reference": "Specimen/066a06bc94fc147f2aaba0e9d8019347c986d28791d886920581b903769b23af"
      }
    },
    "request": {
      "method": "PUT",
      "url": "Observation/7ad413ed60e4bb360180785679bbbbb9005d5eab1b122dce6db6b4b389b5dd8c"
    }
  }, {
    "fullUrl": "Observation/9be471ade1c74a739feae3a4a964ce1b947af5dd9c0c885ddefddb9faf5dc90a",
    "resource": {
      "resourceType": "Observation",
      "id": "9be471ade1c74a739feae3a4a964ce1b947af5dd9c0c885ddefddb9faf5dc90a",
      "meta": {
        "profile": [ "https://www.medizininformatik-initiative.de/fhir/ext/modul-onko/StructureDefinition/mii-pr-onko-grading" ]
      },
      "identifier": [ {
        "system": "https://bzkf.github.io/obds-to-fhir/identifiers/grading-observation-id",
        "value": "263-grading"
      } ],
      "status": "final",
      "category": [ {
        "coding": [ {
          "system": "http://terminology.hl7.org/CodeSystem/observation-category",
          "code": "laboratory"
        } ]
      } ],
      "code": {
        "coding": [ {
          "system": "http://loinc.org",
          "version": "2.80",
          "code": "33732-9",
          "display": "Histology grade [Identifier] in Cancer specimen"
        }, {
          "system": "http://snomed.info/sct",
          "version": "http://snomed.info/sct/900000000000207008/version/20250501",
          "code": "371469007",
          "display": "Histologic grade of neoplasm (observable entity)"
        } ]
      },
      "subject": {
        "reference": "Patient/9142ee3ff7990f826ada966f03da267e0fe662f73858158f5e868b772cd68730"
      },
      "focus": [ {
        "reference": "Condition/57fe05a96c5aea16ea6ccf644f5da4afb7b73f8e9390e11bf7fff7a95d08edae"
      } ],
      "effectiveDateTime": "2020-02-20",
      "valueCodeableConcept": {
        "coding": [ {
          "system": "https://www.medizininformatik-initiative.de/fhir/ext/modul-onko/CodeSystem/mii-cs-onko-grading",
          "code": "2"
        } ]
      },
      "specimen": {
        "reference": "Specimen/066a06bc94fc147f2aaba0e9d8019347c986d28791d886920581b903769b23af"
      }
    },
    "request": {
      "method": "PUT",
      "url": "Observation/9be471ade1c74a739feae3a4a964ce1b947af5dd9c0c885ddefddb9faf5dc90a"
    }
  }, {
    "fullUrl": "Observation/b946d925b61cfabf8ed80d58e5daa275d27052df02e0601b6c9d56e0a12829c7",
    "resource": {
      "resourceType": "Observation",
      "id": "b946d925b61cfabf8ed80d58e5daa275d27052df02e0601b6c9d56e0a12829c7",
      "meta": {
        "profile": [ "https://www.medizininformatik-initiative.de/fhir/ext/modul-onko/StructureDefinition/mii-pr-onko-anzahl-befallene-sentinel-lymphknoten" ]
      },
      "identifier": [ {
        "system": "https://bzkf.github.io/obds-to-fhir/identifiers/lymphknotenuntersuchung-observation-id",
        "value": "263-befallen-sentinel"
      } ],
      "status": "final",
      "category": [ {
        "coding": [ {
          "system": "http://terminology.hl7.org/CodeSystem/observation-category",
          "code": "laboratory"
        } ]
      } ],
      "code": {
        "coding": [ {
          "system": "http://loinc.org",
          "version": "2.80",
          "code": "92832-5"
        }, {
          "system": "http://snomed.info/sct",
          "version": "http://snomed.info/sct/900000000000207008/version/20250501",
          "code": "1264491009"
        } ]
      },
      "subject": {
        "reference": "Patient/9142ee3ff7990f826ada966f03da267e0fe662f73858158f5e868b772cd68730"
      },
      "focus": [ {
        "reference": "Condition/57fe05a96c5aea16ea6ccf644f5da4afb7b73f8e9390e11bf7fff7a95d08edae"
      } ],
      "effectiveDateTime": "2020-02-20",
      "valueQuantity": {
        "value": 2,
        "unit": "#",
        "system": "http://unitsofmeasure.org",
        "code": "1"
      },
      "specimen": {
        "reference": "Specimen/066a06bc94fc147f2aaba0e9d8019347c986d28791d886920581b903769b23af"
      }
    },
    "request": {
      "method": "PUT",
      "url": "Observation/b946d925b61cfabf8ed80d58e5daa275d27052df02e0601b6c9d56e0a12829c7"
    }
  }, {
    "fullUrl": "Observation/8c1dd8385f3788ca22f2da4d532ca5b3b654bd27c2a62aad3a68f966584b914f",
    "resource": {
      "resourceType": "Observation",
      "id": "8c1dd8385f3788ca22f2da4d532ca5b3b654bd27c2a62aad3a68f966584b914f",
      "meta": {
        "profile": [ "https://www.medizininformatik-initiative.de/fhir/ext/modul-onko/StructureDefinition/mii-pr-onko-anzahl-untersuchte-sentinel-lymphknoten" ]
      },
      "identifier": [ {
        "system": "https://bzkf.github.io/obds-to-fhir/identifiers/lymphknotenuntersuchung-observation-id",
        "value": "263-untersucht-sentinel"
      } ],
      "status": "final",
      "category": [ {
        "coding": [ {
          "system": "http://terminology.hl7.org/CodeSystem/observation-category",
          "code": "laboratory"
        } ]
      } ],
      "code": {
        "coding": [ {
          "system": "http://loinc.org",
          "version": "2.80",
          "code": "85347-3"
        }, {
          "system": "http://snomed.info/sct",
          "version": "http://snomed.info/sct/900000000000207008/version/20250501",
          "code": "444411008"
        } ]
      },
      "subject": {
        "reference": "Patient/9142ee3ff7990f826ada966f03da267e0fe662f73858158f5e868b772cd68730"
      },
      "focus": [ {
        "reference": "Condition/57fe05a96c5aea16ea6ccf644f5da4afb7b73f8e9390e11bf7fff7a95d08edae"
      } ],
      "effectiveDateTime": "2020-02-20",
      "valueQuantity": {
        "value": 3,
        "unit": "#",
        "system": "http://unitsofmeasure.org",
        "code": "1"
      },
      "specimen": {
        "reference": "Specimen/066a06bc94fc147f2aaba0e9d8019347c986d28791d886920581b903769b23af"
      }
    },
    "request": {
      "method": "PUT",
      "url": "Observation/8c1dd8385f3788ca22f2da4d532ca5b3b654bd27c2a62aad3a68f966584b914f"
    }
  }, {
    "fullUrl": "Observation/55a811dc57741805ae3cc22d08236f1c117db2407ee1d9bcb5a58922e30a2e98",
    "resource": {
      "resourceType": "Observation",
      "id": "55a811dc57741805ae3cc22d08236f1c117db2407ee1d9bcb5a58922e30a2e98",
      "meta": {
        "profile": [ "https://www.medizininformatik-initiative.de/fhir/ext/modul-onko/StructureDefinition/mii-pr-onko-tnm-t-kategorie" ]
      },
      "identifier": [ {
        "system": "https://bzkf.github.io/obds-to-fhir/identifiers/tnm-t-kategorie-observation-id",
        "value": "250-T"
      } ],
      "status": "final",
      "code": {
        "extension": [ {
          "url": "https://www.medizininformatik-initiative.de/fhir/ext/modul-onko/StructureDefinition/mii-ex-onko-tnm-cp-praefix",
          "valueCodeableConcept": {
            "coding": [ {
              "system": "https://www.uicc.org/resources/tnm",
              "code": "p"
            } ]
          }
        } ],
        "coding": [ {
          "system": "http://snomed.info/sct",
          "version": "http://snomed.info/sct/900000000000207008/version/20250501",
          "code": "384625004",
          "display": "pT category (observable entity)"
        } ]
      },
      "subject": {
        "reference": "Patient/9142ee3ff7990f826ada966f03da267e0fe662f73858158f5e868b772cd68730"
      },
      "focus": [ {
        "reference": "Condition/57fe05a96c5aea16ea6ccf644f5da4afb7b73f8e9390e11bf7fff7a95d08edae"
      } ],
      "effectiveDateTime": "2020-02-20",
      "valueCodeableConcept": {
        "coding": [ {
          "system": "https://www.uicc.org/resources/tnm",
          "code": "T2"
        } ]
      },
      "method": {
        "coding": [ {
          "system": "https://www.medizininformatik-initiative.de/fhir/ext/modul-onko/CodeSystem/mii-cs-onko-tnm-version",
          "code": "8"
        } ]
      }
    },
    "request": {
      "method": "PUT",
      "url": "Observation/55a811dc57741805ae3cc22d08236f1c117db2407ee1d9bcb5a58922e30a2e98"
    }
  }, {
    "fullUrl": "Observation/437e0c5c5b1e66310fb65ba4369469dedf12562eb989b33b823f76f0cf2435d0",
    "resource": {
      "resourceType": "Observation",
      "id": "437e0c5c5b1e66310fb65ba4369469dedf12562eb989b33b823f76f0cf2435d0",
      "meta": {
        "profile": [ "https://www.medizininformatik-initiative.de/fhir/ext/modul-onko/StructureDefinition/mii-pr-onko-tnm-n-kategorie" ]
      },
      "identifier": [ {
        "system": "https://bzkf.github.io/obds-to-fhir/identifiers/tnm-n-kategorie-observation-id",
        "value": "250-N"
      } ],
      "status": "final",
      "code": {
        "extension": [ {
          "url": "https://www.medizininformatik-initiative.de/fhir/ext/modul-onko/StructureDefinition/mii-ex-onko-tnm-cp-praefix",
          "valueCodeableConcept": {
            "coding": [ {
              "system": "https://www.uicc.org/resources/tnm",
              "code": "p"
            } ]
          }
        } ],
        "coding": [ {
          "system": "http://snomed.info/sct",
          "version": "http://snomed.info/sct/900000000000207008/version/20250501",
          "code": "371494008",
          "display": "pN category (observable entity)"
        } ]
      },
      "subject": {
        "reference": "Patient/9142ee3ff7990f826ada966f03da267e0fe662f73858158f5e868b772cd68730"
      },
      "focus": [ {
        "reference": "Condition/57fe05a96c5aea16ea6ccf644f5da4afb7b73f8e9390e11bf7fff7a95d08edae"
      } ],
      "effectiveDateTime": "2020-02-20",
      "valueCodeableConcept": {
        "extension": [ {
          "url": "https://www.medizininformatik-initiative.de/fhir/ext/modul-onko/StructureDefinition/mii-ex-onko-tnm-sn-suffix",
          "valueCodeableConcept": {
            "coding": [ {
              "system": "https://www.uicc.org/resources/tnm",
              "code": "sn"
            } ]
          }
        } ],
        "coding": [ {
          "system": "https://www.uicc.org/resources/tnm",
          "code": "N1"
        } ]
      },
      "method": {
        "coding": [ {
          "system": "https://www.medizininformatik-initiative.de/fhir/ext/modul-onko/CodeSystem/mii-cs-onko-tnm-version",
          "code": "8"
        } ]
      }
    },
    "request": {
      "method": "PUT",
      "url": "Observation/437e0c5c5b1e66310fb65ba4369469dedf12562eb989b33b823f76f0cf2435d0"
    }
  }, {
    "fullUrl": "Observation/37ae8416be504843bba2231186609a315b28ce0a75f8e0416cf6439f05e52302",
    "resource": {
      "resourceType": "Observation",
      "id": "37ae8416be504843bba2231186609a315b28ce0a75f8e0416cf6439f05e52302",
      "meta": {
        "profile": [ "https://www.medizininformatik-initiative.de/fhir/ext/modul-onko/StructureDefinition/mii-pr-onko-tnm-m-kategorie" ]
      },
      "identifier": [ {
        "system": "https://bzkf.github.io/obds-to-fhir/identifiers/tnm-m-kategorie-observation-id",
        "value": "250-M"
      } ],
      "status": "final",
      "code": {
        "extension": [ {
          "url": "https://www.medizininformatik-initiative.de/fhir/ext/modul-onko/StructureDefinition/mii-ex-onko-tnm-cp-praefix",
          "valueCodeableConcept": {
            "coding": [ {
              "system": "https://www.uicc.org/resources/tnm",
              "code": "c"
            } ]
          }
        } ],
        "coding": [ {
          "system": "http://snomed.info/sct",
          "version": "http://snomed.info/sct/900000000000207008/version/20250501",
          "code": "399387003",
          "display": "cM category (observable entity)"
        } ]
      },
      "subject": {
        "reference": "Patient/9142ee3ff7990f826ada966f03da267e0fe662f73858158f5e868b772cd68730"
      },
      "focus": [ {
        "reference": "Condition/57fe05a96c5aea16ea6ccf644f5da4afb7b73f8e9390e11bf7fff7a95d08edae"
      } ],
      "effectiveDateTime": "2020-02-20",
      "valueCodeableConcept": {
        "coding": [ {
          "system": "https://www.uicc.org/resources/tnm",
          "code": "M0"
        } ]
      },
      "method": {
        "coding": [ {
          "system": "https://www.medizininformatik-initiative.de/fhir/ext/modul-onko/CodeSystem/mii-cs-onko-tnm-version",
          "code": "8"
        } ]
      }
    },
    "request": {
      "method": "PUT",
      "url": "Observation/37ae8416be504843bba2231186609a315b28ce0a75f8e0416cf6439f05e52302"
    }
  }, {
    "fullUrl": "Observation/d74e0f0ca9b0546020c61ffaeec8a6e64ec5c0f14558c6fc8e540004425bf3f4",
    "resource": {
      "resourceType": "Observation",
      "id": "d74e0f0ca9b0546020c61ffaeec8a6e64ec5c0f14558c6fc8e540004425bf3f4",
      "meta": {
        "profile": [ "https://www.medizininformatik-initiative.de/fhir/ext/modul-onko/StructureDefinition/mii-pr-onko-tnm-l-kategorie" ]
      },
      "identifier": [ {
        "system": "https://bzkf.github.io/obds-to-fhir/identifiers/tnm-l-kategorie-observation-id",
        "value": "250-L"
      } ],
      "status": "final",
      "code": {
        "coding": [ {
          "system": "http://snomed.info/sct",
          "version": "http://snomed.info/sct/900000000000207008/version/20250501",
          "code": "395715009",
          "display": "Status of lymphatic (small vessel) invasion by tumor (observable entity)"
        } ]
      },
      "subject": {
        "reference": "Patient/9142ee3ff7990f826ada966f03da267e0fe662f73858158f5e868b772cd68730"
      },
      "focus": [ {
        "reference": "Condition/57fe05a96c5aea16ea6ccf644f5da4afb7b73f8e9390e11bf7fff7a95d08edae"
      } ],
      "effectiveDateTime": "2020-02-20",
      "valueCodeableConcept": {
        "coding": [ {
          "system": "https://www.uicc.org/resources/tnm",
          "code": "L0"
        } ]
      },
      "method": {
        "coding": [ {
          "system": "https://www.medizininformatik-initiative.de/fhir/ext/modul-onko/CodeSystem/mii-cs-onko-tnm-version",
          "code": "8"
        } ]
      }
    },
    "request": {
      "method": "PUT",
      "url": "Observation/d74e0f0ca9b0546020c61ffaeec8a6e64ec5c0f14558c6fc8e540004425bf3f4"
    }
  }, {
    "fullUrl": "Observation/e1a214e519631e9309840bf321d2208dec4e2feaafa65f48b0bc5ab07e6a6d1c",
    "resource": {
      "resourceType": "Observation",
      "id": "e1a214e519631e9309840bf321d2208dec4e2feaafa65f48b0bc5ab07e6a6d1c",
      "meta": {
        "profile": [ "https://www.medizininformatik-initiative.de/fhir/ext/modul-onko/StructureDefinition/mii-pr-onko-tnm-pn-kategorie" ]
      },
      "identifier": [ {
        "system": "https://bzkf.github.io/obds-to-fhir/identifiers/tnm-pn-kategorie-observation-id",
        "value": "250-Pn"
      } ],
      "status": "final",
      "code": {
        "coding": [ {
          "system": "http://snomed.info/sct",
          "version": "http://snomed.info/sct/900000000000207008/version/20250501",
          "code": "371513001",
          "display": "Presence of direct invasion by primary malignant neoplasm to nerve (observable entity)"
        } ]
      },
      "subject": {
        "reference": "Patient/9142ee3ff7990f826ada966f03da267e0fe662f73858158f5e868b772cd68730"
      },
      "focus": [ {
        "reference": "Condition/57fe05a96c5aea16ea6ccf644f5da4afb7b73f8e9390e11bf7fff7a95d08edae"
      } ],
      "effectiveDateTime": "2020-02-20",
      "valueCodeableConcept": {
        "coding": [ {
          "system": "https://www.uicc.org/resources/tnm",
          "code": "Pn0"
        } ]
      },
      "method": {
        "coding": [ {
          "system": "https://www.medizininformatik-initiative.de/fhir/ext/modul-onko/CodeSystem/mii-cs-onko-tnm-version",
          "code": "8"
        } ]
      }
    },
    "request": {
      "method": "PUT",
      "url": "Observation/e1a214e519631e9309840bf321d2208dec4e2feaafa65f48b0bc5ab07e6a6d1c"
    }
  }, {
    "fullUrl": "Observation/96cdc81c98b08515bc61728f06c78dd055ade492f2c7e6dfa96fcb9bdd9debc2",
    "resource": {
      "resourceType": "Observation",
      "id": "96cdc81c98b08515bc61728f06c78dd055ade492f2c7e6dfa96fcb9bdd9debc2",
      "meta": {
        "profile": [ "https://www.medizininformatik-initiative.de/fhir/ext/modul-onko/StructureDefinition/mii-pr-onko-tnm-v-kategorie" ]
      },
      "identifier": [ {
        "system": "https://bzkf.github.io/obds-to-fhir/identifiers/tnm-v-kategorie-observation-id",
        "value": "250-V"
      } ],
      "status": "final",
      "code": {
        "coding": [ {
          "system": "http://snomed.info/sct",
          "version": "http://snomed.info/sct/900000000000207008/version/20250501",
          "code": "371493002",
          "display": "Status of venous (large vessel) invasion by tumor (observable entity)"
        } ]
      },
      "subject": {
        "reference": "Patient/9142ee3ff7990f826ada966f03da267e0fe662f73858158f5e868b772cd68730"
      },
      "focus": [ {
        "reference": "Condition/57fe05a96c5aea16ea6ccf644f5da4afb7b73f8e9390e11bf7fff7a95d08edae"
      } ],
      "effectiveDateTime": "2020-02-20",
      "valueCodeableConcept": {
        "coding": [ {
          "system": "https://www.uicc.org/resources/tnm",
          "code": "V0"
        } ]
      },
      "method": {
        "coding": [ {
          "system": "https://www.medizininformatik-initiative.de/fhir/ext/modul-onko/CodeSystem/mii-cs-onko-tnm-version",
          "code": "8"
        } ]
      }
    },
    "request": {
      "method": "PUT",
      "url": "Observation/96cdc81c98b08515bc61728f06c78dd055ade492f2c7e6dfa96fcb9bdd9debc2"
    }
  }, {
    "fullUrl": "Observation/46b7dfb6d6c176cf6972d9c7d3464e7712415f72a06ae8adb5f771dc25ff76fc",
    "resource": {
      "resourceType": "Observation",
      "id": "46b7dfb6d6c176cf6972d9c7d3464e7712415f72a06ae8adb5f771dc25ff76fc",
      "meta": {
        "profile": [ "https://www.medizininformatik-initiative.de/fhir/ext/modul-onko/StructureDefinition/mii-pr-onko-tnm-klassifikation" ]
      },
      "identifier": [ {
        "system": "https://bzkf.github.io/obds-to-fhir/identifiers/tnm-grouping-observation-id",
        "value": "250"
      } ],
      "status": "final",
      "code": {
        "coding": [ {
          "system": "http://snomed.info/sct",
          "version": "http://snomed.info/sct/900000000000207008/version/20250501",
          "code": "399390009",
          "display": "TNM stage grouping"
        } ]
      },
      "subject": {
        "reference": "Patient/9142ee3ff7990f826ada966f03da267e0fe662f73858158f5e868b772cd68730"
      },
      "focus": [ {
        "reference": "Condition/57fe05a96c5aea16ea6ccf644f5da4afb7b73f8e9390e11bf7fff7a95d08edae"
      } ],
      "effectiveDateTime": "2020-02-20",
      "valueCodeableConcept": {
        "coding": [ {
          "system": "https://www.uicc.org/resources/tnm",
          "code": "IIB",
          "display": "Stadium IIB"
        } ]
      },
      "method": {
        "coding": [ {
          "system": "https://www.medizininformatik-initiative.de/fhir/ext/modul-onko/CodeSystem/mii-cs-onko-tnm-version",
          "code": "8"
        } ]
      },
      "hasMember": [ {
        "reference": "Observation/55a811dc57741805ae3cc22d08236f1c117db2407ee1d9bcb5a58922e30a2e98"
      }, {
        "reference": "Observation/437e0c5c5b1e66310fb65ba4369469dedf12562eb989b33b823f76f0cf2435d0"
      }, {
        "reference": "Observation/37ae8416be504843bba2231186609a315b28ce0a75f8e0416cf6439f05e52302"
      }, {
        "reference": "Observation/d74e0f0ca9b0546020c61ffaeec8a6e64ec5c0f14558c6fc8e540004425bf3f4"
      }, {
        "reference": "Observation/e1a214e519631e9309840bf321d2208dec4e2feaafa65f48b0bc5ab07e6a6d1c"
      }, {
        "reference": "Observation/96cdc81c98b08515bc61728f06c78dd055ade492f2c7e6dfa96fcb9bdd9debc2"
      } ]
    },
    "request": {
      "method": "PUT",
      "url": "Observation/46b7dfb6d6c176cf6972d9c7d3464e7712415f72a06ae8adb5f771dc25ff76fc"
    }
  }, {
    "fullUrl": "Procedure/de875a1e1285ad0484739a80e4d58a12a2c1483dcc097458852a16ce1b264736",
    "resource": {
      "resourceType": "Procedure",
      "id": "de875a1e1285ad0484739a80e4d58a12a2c1483dcc097458852a16ce1b264736",
      "meta": {
        "profile": [ "https://www.medizininformatik-initiative.de/fhir/ext/modul-onko/StructureDefinition/mii-pr-onko-systemische-therapie" ]
      },
      "extension": [ {
        "url": "https://www.medizininformatik-initiative.de/fhir/ext/modul-onko/StructureDefinition/mii-ex-onko-systemische-therapie-intention",
        "valueCodeableConcept": {
          "coding": [ {
            "system": "https://www.medizininformatik-initiative.de/fhir/ext/modul-onko/CodeSystem/mii-cs-onko-intention",
            "code": "K"
          } ]
        }
      }, {
        "url": "https://www.medizininformatik-initiative.de/fhir/ext/modul-onko/StructureDefinition/mii-ex-onko-systemische-therapie-stellungzurop",
        "valueCodeableConcept": {
          "coding": [ {
            "system": "https://www.medizininformatik-initiative.de/fhir/ext/modul-onko/CodeSystem/mii-cs-onko-therapie-stellungzurop",
            "code": "A"
          } ]
        }
      } ],
      "identifier": [ {
        "system": "https://bzkf.github.io/obds-to-fhir/identifiers/systemische-therapie-procedure-id",
        "value": "60_1_IN_1"
      } ],
      "status": "in-progress",
      "category": {
        "coding": [ {
          "system": "http://snomed.info/sct",
          "version": "http://snomed.info/sct/900000000000207008/version/20250501",
          "code": "18629005",
          "display": "Administration of drug or medicament (procedure)"
        } ]
      },
      "code": {
        "coding": [ {
          "system": "http://fhir.de/CodeSystem/bfarm/ops",
          "version": "2025",
          "code": "8-54",
          "display": "Zytostatische Chemotherapie, Immuntherapie und antiretrovirale Therapie"
        }, {
          "system": "https://www.medizininformatik-initiative.de/fhir/ext/modul-onko/CodeSystem/mii-cs-onko-therapie-typ",
          "code": "CH"
        } ]
      },
      "subject": {
        "reference": "Patient/9142ee3ff7990f826ada966f03da267e0fe662f73858158f5e868b772cd68730"
      },
      "performedPeriod": {
        "start": "2020-04-03"
      },
      "reasonReference": [ {
        "reference": "Condition/57fe05a96c5aea16ea6ccf644f5da4afb7b73f8e9390e11bf7fff7a95d08edae"
      } ],
      "usedCode": [ {
        "text": "Cisplatin"
      } ]
    },
    "request": {
      "method": "PUT",
      "url": "Procedure/de875a1e1285ad0484739a80e4d58a12a2c1483dcc097458852a16ce1b264736"
    }
  }, {
    "fullUrl": "MedicationStatement/0e921f5dbce98f86c8652a24e9c50d54edf3ae18fc6479d76932b21ed24f4f6e",
    "resource": {
      "resourceType": "MedicationStatement",
      "id": "0e921f5dbce98f86c8652a24e9c50d54edf3ae18fc6479d76932b21ed24f4f6e",
      "meta": {
        "profile": [ "https://www.medizininformatik-initiative.de/fhir/ext/modul-onko/StructureDefinition/mii-pr-onko-systemische-therapie-medikation" ]
      },
      "identifier": [ {
        "system": "https://bzkf.github.io/obds-to-fhir/identifiers/systemische-therapie-medication-statement-id",
        "value": "57fe05a96c5aea16ea6ccf644f5da4afb7b73f8e9390e11bf7fff7a95d08edae-60_1_IN_1-Cisplatin"
      } ],
      "partOf": [ {
        "reference": "Procedure/de875a1e1285ad0484739a80e4d58a12a2c1483dcc097458852a16ce1b264736"
      } ],
      "status": "active",
      "medicationCodeableConcept": {
        "coding": [ {
          "system": "http://fhir.de/CodeSystem/bfarm/atc",
          "code": "L01XA01"
        } ],
        "text": "Cisplatin"
      },
      "subject": {
        "reference": "Patient/9142ee3ff7990f826ada966f03da267e0fe662f73858158f5e868b772cd68730"
      },
      "effectivePeriod": {
        "start": "2020-04-03"
      },
      "reasonReference": [ {
        "reference": "Condition/57fe05a96c5aea16ea6ccf644f5da4afb7b73f8e9390e11bf7fff7a95d08edae"
      } ]
    },
    "request": {
      "method": "PUT",
      "url": "MedicationStatement/0e921f5dbce98f86c8652a24e9c50d54edf3ae18fc6479d76932b21ed24f4f6e"
    }
  }, {
    "fullUrl": "AdverseEvent/687b11e821fce78dfbb84ce76cf145d062cdd8174f1f9b1b00622e2480e3328a",
    "resource": {
      "resourceType": "AdverseEvent",
      "id": "687b11e821fce78dfbb84ce76cf145d062cdd8174f1f9b1b00622e2480e3328a",
      "meta": {
        "profile": [ "https://www.medizininformatik-initiative.de/fhir/ext/modul-onko/StructureDefinition/mii-pr-onko-nebenwirkung-adverse-event" ]
      },
      "identifier": {
        "system": "https://bzkf.github.io/obds-to-fhir/identifiers/nebenwirkung-adverse-event-id",
        "value": "mii-pr-onko-nebenwirkung-60_1_IN_1-Grad-maximal-2-unbekannt"
      },
      "actuality": "actual",
      "event": {
        "extension": [ {
          "url": "http://hl7.org/fhir/StructureDefinition/data-absent-reason",
          "valueCode": "not-applicable"
        } ]
      },
      "subject": {
        "reference": "Patient/9142ee3ff7990f826ada966f03da267e0fe662f73858158f5e868b772cd68730"
      },
      "seriousness": {
        "coding": [ {
          "system": "https://www.medizininformatik-initiative.de/fhir/ext/modul-onko/CodeSystem/mii-cs-onko-nebenwirkung-ctcae-grad",
          "code": "2"
        } ]
      },
      "suspectEntity": [ {
        "instance": {
          "reference": "Procedure/de875a1e1285ad0484739a80e4d58a12a2c1483dcc097458852a16ce1b264736"
        }
      } ]
    },
    "request": {
      "method": "PUT",
      "url": "AdverseEvent/687b11e821fce78dfbb84ce76cf145d062cdd8174f1f9b1b00622e2480e3328a"
    }
  }, {
    "fullUrl": "Procedure/f52e718bb2946bce3b4886e0dc8139d24bcaafad2b502a8e3c2a76022f117d8d",
    "resource": {
      "resourceType": "Procedure",
      "id": "f52e718bb2946bce3b4886e0dc8139d24bcaafad2b502a8e3c2a76022f117d8d",
      "meta": {
        "profile": [ "https://www.medizininformatik-initiative.de/fhir/ext/modul-onko/StructureDefinition/mii-pr-onko-systemische-therapie" ]
      },
      "extension": [ {
        "url": "https://www.medizininformatik-initiative.de/fhir/ext/modul-onko/StructureDefinition/mii-ex-onko-systemische-therapie-intention",
        "valueCodeableConcept": {
          "coding": [ {
            "system": "https://www.medizininformatik-initiative.de/fhir/ext/modul-onko/CodeSystem/mii-cs-onko-intention",
            "code": "K"
          } ]
        }
      }, {
        "url": "https://www.medizininformatik-initiative.de/fhir/ext/modul-onko/StructureDefinition/mii-ex-onko-systemische-therapie-stellungzurop",
        "valueCodeableConcept": {
          "coding": [ {
            "system": "https://www.medizininformatik-initiative.de/fhir/ext/modul-onko/CodeSystem/mii-cs-onko-therapie-stellungzurop",
            "code": "A"
          } ]
        }
      } ],
      "identifier": [ {
        "system": "https://bzkf.github.io/obds-to-fhir/identifiers/systemische-therapie-procedure-id",
        "value": "60_1_IN_2"
      } ],
      "status": "in-progress",
      "category": {
        "coding": [ {
          "system": "http://snomed.info/sct",
          "version": "http://snomed.info/sct/900000000000207008/version/20250501",
          "code": "18629005",
          "display": "Administration of drug or medicament (procedure)"
        } ]
      },
      "code": {
        "coding": [ {
          "system": "http://fhir.de/CodeSystem/bfarm/ops",
          "version": "2025",
          "code": "6-00",
          "display": "Applikation von Medikamenten"
        }, {
          "system": "https://www.medizininformatik-initiative.de/fhir/ext/modul-onko/CodeSystem/mii-cs-onko-therapie-typ",
          "code": "HO"
        } ]
      },
      "subject": {
        "reference": "Patient/9142ee3ff7990f826ada966f03da267e0fe662f73858158f5e868b772cd68730"
      },
      "performedPeriod": {
        "start": "2020-08-02"
      },
      "reasonReference": [ {
        "reference": "Condition/57fe05a96c5aea16ea6ccf644f5da4afb7b73f8e9390e11bf7fff7a95d08edae"
      } ],
      "usedCode": [ {
        "text": "Anastrozol"
      } ]
    },
    "request": {
      "method": "PUT",
      "url": "Procedure/f52e718bb2946bce3b4886e0dc8139d24bcaafad2b502a8e3c2a76022f117d8d"
    }
  }, {
    "fullUrl": "AdverseEvent/069751a6d48afa95c3c1a4888eacf71ee96ab819e886dff06b7b3cafe7492c21",
    "resource": {
      "resourceType": "AdverseEvent",
      "id": "069751a6d48afa95c3c1a4888eacf71ee96ab819e886dff06b7b3cafe7492c21",
      "meta": {
        "profile": [ "https://www.medizininformatik-initiative.de/fhir/ext/modul-onko/StructureDefinition/mii-pr-onko-nebenwirkung-adverse-event" ]
      },
      "identifier": {
        "system": "https://bzkf.github.io/obds-to-fhir/identifiers/nebenwirkung-adverse-event-id",
        "value": "mii-pr-onko-nebenwirkung-60_1_IN_2-Grad-maximal-2-unbekannt"
      },
      "actuality": "actual",
      "event": {
        "extension": [ {
          "url": "http://hl7.org/fhir/StructureDefinition/data-absent-reason",
          "valueCode": "not-applicable"
        } ]
      },
      "subject": {
        "reference": "Patient/9142ee3ff7990f826ada966f03da267e0fe662f73858158f5e868b772cd68730"
      },
      "seriousness": {
        "coding": [ {
          "system": "https://www.medizininformatik-initiative.de/fhir/ext/modul-onko/CodeSystem/mii-cs-onko-nebenwirkung-ctcae-grad",
          "code": "U"
        } ]
      },
      "suspectEntity": [ {
        "instance": {
          "reference": "Procedure/f52e718bb2946bce3b4886e0dc8139d24bcaafad2b502a8e3c2a76022f117d8d"
        }
      } ]
    },
    "request": {
      "method": "PUT",
      "url": "AdverseEvent/069751a6d48afa95c3c1a4888eacf71ee96ab819e886dff06b7b3cafe7492c21"
    }
  }, {
    "fullUrl": "CarePlan/dbebd7818cc0f3b4664bb738cf89b8b9107381062036d4b562cf4e6c0799e53d",
    "resource": {
      "resourceType": "CarePlan",
      "id": "dbebd7818cc0f3b4664bb738cf89b8b9107381062036d4b562cf4e6c0799e53d",
      "meta": {
        "profile": [ "https://www.medizininformatik-initiative.de/fhir/ext/modul-onko/StructureDefinition/mii-pr-onko-tumorkonferenz" ]
      },
      "identifier": [ {
        "system": "https://bzkf.github.io/obds-to-fhir/identifiers/tumorkonferenz-care-plan-id",
        "value": "Tumorkonferenz-108"
      } ],
      "status": "active",
      "intent": "plan",
      "category": [ {
        "coding": [ {
          "system": "https://www.medizininformatik-initiative.de/fhir/ext/modul-onko/CodeSystem/mii-cs-onko-therapieplanung-typ",
          "code": "praeth"
        } ]
      } ],
      "subject": {
        "reference": "Patient/9142ee3ff7990f826ada966f03da267e0fe662f73858158f5e868b772cd68730"
      },
      "created": "2021-09-21",
      "addresses": [ {
        "reference": "Condition/57fe05a96c5aea16ea6ccf644f5da4afb7b73f8e9390e11bf7fff7a95d08edae"
      } ],
      "activity": [ {
        "detail": {
          "code": {
            "coding": [ {
              "system": "https://www.medizininformatik-initiative.de/fhir/ext/modul-onko/CodeSystem/mii-cs-onko-therapie-typ",
              "code": "CH"
            } ]
          },
          "status": "cancelled",
          "statusReason": {
            "coding": [ {
              "system": "https://www.medizininformatik-initiative.de/fhir/ext/modul-onko/CodeSystem/mii-cs-onko-therapieabweichung",
              "code": "J"
            } ]
          }
        }
      } ]
    },
    "request": {
      "method": "PUT",
      "url": "CarePlan/dbebd7818cc0f3b4664bb738cf89b8b9107381062036d4b562cf4e6c0799e53d"
    }
  }, {
    "fullUrl": "Observation/59a68b71c169b1e5ab256bd149915da265e2931416dba4fe5879527eaeecdd81",
    "resource": {
      "resourceType": "Observation",
      "id": "59a68b71c169b1e5ab256bd149915da265e2931416dba4fe5879527eaeecdd81",
      "meta": {
        "profile": [ "https://www.medizininformatik-initiative.de/fhir/ext/modul-onko/StructureDefinition/mii-pr-onko-verlauf" ]
      },
      "identifier": [ {
        "system": "https://bzkf.github.io/obds-to-fhir/identifiers/verlauf-observation-id",
        "value": "153"
      } ],
      "status": "final",
      "code": {
        "coding": [ {
          "system": "http://snomed.info/sct",
          "version": "http://snomed.info/sct/900000000000207008/version/20250501",
          "code": "396432002",
          "display": "Status of regression of tumor (observable entity)"
        } ]
      },
      "subject": {
        "reference": "Patient/9142ee3ff7990f826ada966f03da267e0fe662f73858158f5e868b772cd68730"
      },
      "focus": [ {
        "reference": "Condition/57fe05a96c5aea16ea6ccf644f5da4afb7b73f8e9390e11bf7fff7a95d08edae"
      } ],
      "effectiveDateTime": "2021-09-14",
      "valueCodeableConcept": {
        "coding": [ {
          "system": "https://www.medizininformatik-initiative.de/fhir/ext/modul-onko/CodeSystem/mii-cs-onko-verlauf-gesamtbeurteilung",
          "code": "P",
          "display": "Progression"
        } ]
      },
      "component": [ {
        "code": {
          "coding": [ {
            "system": "http://snomed.info/sct",
            "version": "http://snomed.info/sct/900000000000207008/version/20250501",
            "code": "277062004",
            "display": "Status des Residualtumors"
          } ]
        },
        "valueCodeableConcept": {
          "coding": [ {
            "system": "https://www.medizininformatik-initiative.de/fhir/ext/modul-onko/CodeSystem/mii-cs-onko-verlauf-primaertumor",
            "code": "R",
            "display": "Lokalrezidiv"
          } ]
        }
      }, {
        "code": {
          "coding": [ {
            "system": "http://snomed.info/sct",
            "version": "http://snomed.info/sct/900000000000207008/version/20250501",
            "code": "399656008",
            "display": "Status of tumor metastasis to regional lymph nodes (observable entity)"
          } ]
        },
        "valueCodeableConcept": {
          "coding": [ {
            "system": "https://www.medizininformatik-initiative.de/fhir/ext/modul-onko/CodeSystem/mii-cs-onko-verlauf-lymphknoten",
            "code": "R",
            "display": "neu aufgetretenes Lymphknotenrezidiv"
          } ]
        }
      }, {
        "code": {
          "coding": [ {
            "system": "http://snomed.info/sct",
            "version": "http://snomed.info/sct/900000000000207008/version/20250501",
            "code": "399608002",
            "display": "Status of distant metastasis (observable entity)"
          } ]
        },
        "valueCodeableConcept": {
          "coding": [ {
            "system": "https://www.medizininformatik-initiative.de/fhir/ext/modul-onko/CodeSystem/mii-cs-onko-verlauf-fernmetastasen",
            "code": "R",
            "display": "neu aufgetretene Fernmetastase(n) bzw. Metastasenrezidiv"
          } ]
        }
      } ]
    },
    "request": {
      "method": "PUT",
      "url": "Observation/59a68b71c169b1e5ab256bd149915da265e2931416dba4fe5879527eaeecdd81"
    }
  }, {
    "fullUrl": "Observation/bb9de60fae20fa97fe422fbe9c07a681bca660ec6380f8476642fd62d83690e5",
    "resource": {
      "resourceType": "Observation",
      "id": "bb9de60fae20fa97fe422fbe9c07a681bca660ec6380f8476642fd62d83690e5",
      "meta": {
        "profile": [ "https://www.medizininformatik-initiative.de/fhir/ext/modul-onko/StructureDefinition/mii-pr-onko-fernmetastasen" ]
      },
      "identifier": [ {
        "system": "https://bzkf.github.io/obds-to-fhir/identifiers/fernmetastasen-observation-id",
        "value": "VER_60102-Verlauf-0"
      } ],
      "status": "final",
      "code": {
        "coding": [ {
          "system": "http://snomed.info/sct",
          "version": "http://snomed.info/sct/900000000000207008/version/20250501",
          "code": "385421009",
          "display": "Anatomic location of metastatic spread of malignant neoplasm (observable entity)"
        } ]
      },
      "subject": {
        "reference": "Patient/9142ee3ff7990f826ada966f03da267e0fe662f73858158f5e868b772cd68730"
      },
      "focus": [ {
        "reference": "Condition/57fe05a96c5aea16ea6ccf644f5da4afb7b73f8e9390e11bf7fff7a95d08edae"
      } ],
      "effectiveDateTime": "2021-09-14",
      "valueCodeableConcept": {
        "coding": [ {
          "system": "https://www.medizininformatik-initiative.de/fhir/ext/modul-onko/CodeSystem/mii-cs-onko-fernmetastasen",
          "code": "HEP"
        } ]
      }
    },
    "request": {
      "method": "PUT",
      "url": "Observation/bb9de60fae20fa97fe422fbe9c07a681bca660ec6380f8476642fd62d83690e5"
    }
  }, {
    "fullUrl": "Observation/ac3bfb7a38283a2d84315f2ff03b0a095b4020e8cdd6ea8fc7de5fd83b56ce57",
    "resource": {
      "resourceType": "Observation",
      "id": "ac3bfb7a38283a2d84315f2ff03b0a095b4020e8cdd6ea8fc7de5fd83b56ce57",
      "meta": {
        "profile": [ "https://www.medizininformatik-initiative.de/fhir/ext/modul-onko/StructureDefinition/mii-pr-onko-fernmetastasen" ]
      },
      "identifier": [ {
        "system": "https://bzkf.github.io/obds-to-fhir/identifiers/fernmetastasen-observation-id",
        "value": "VER_60102-Verlauf-1"
      } ],
      "status": "final",
      "code": {
        "coding": [ {
          "system": "http://snomed.info/sct",
          "version": "http://snomed.info/sct/900000000000207008/version/20250501",
          "code": "385421009",
          "display": "Anatomic location of metastatic spread of malignant neoplasm (observable entity)"
        } ]
      },
      "subject": {
        "reference": "Patient/9142ee3ff7990f826ada966f03da267e0fe662f73858158f5e868b772cd68730"
      },
      "focus": [ {
        "reference": "Condition/57fe05a96c5aea16ea6ccf644f5da4afb7b73f8e9390e11bf7fff7a95d08edae"
      } ],
      "effectiveDateTime": "2021-09-14",
      "valueCodeableConcept": {
        "coding": [ {
          "system": "https://www.medizininformatik-initiative.de/fhir/ext/modul-onko/CodeSystem/mii-cs-onko-fernmetastasen",
          "code": "PUL"
        } ]
      }
    },
    "request": {
      "method": "PUT",
      "url": "Observation/ac3bfb7a38283a2d84315f2ff03b0a095b4020e8cdd6ea8fc7de5fd83b56ce57"
    }
  }, {
    "fullUrl": "Observation/e3d251e35335c6faea888d63606d8ed2bcbc690abb50205bf4d9d7439951dc11",
    "resource": {
      "resourceType": "Observation",
      "id": "e3d251e35335c6faea888d63606d8ed2bcbc690abb50205bf4d9d7439951dc11",
      "meta": {
        "profile": [ "https://www.medizininformatik-initiative.de/fhir/ext/modul-onko/StructureDefinition/mii-pr-onko-allgemeiner-leistungszustand-ecog" ]
      },
      "identifier": [ {
        "system": "https://bzkf.github.io/obds-to-fhir/identifiers/allgemeiner-leistungszustand-ecog-id",
        "value": "ECOG-VER_60102"
      } ],
      "status": "final",
      "code": {
        "coding": [ {
          "system": "http://snomed.info/sct",
          "version": "http://snomed.info/sct/900000000000207008/version/20250501",
          "code": "423740007",
          "display": "Eastern Cooperative Oncology Group performance status (observable entity)"
        }, {
          "system": "http://loinc.org",
          "version": "2.80",
          "code": "89262-0",
          "display": "ECOG Performance Status [Interpretation]"
        } ]
      },
      "subject": {
        "reference": "Patient/9142ee3ff7990f826ada966f03da267e0fe662f73858158f5e868b772cd68730"
      },
      "focus": [ {
        "reference": "Condition/57fe05a96c5aea16ea6ccf644f5da4afb7b73f8e9390e11bf7fff7a95d08edae"
      } ],
      "effectiveDateTime": "2021-09-14",
      "valueCodeableConcept": {
        "coding": [ {
          "system": "https://www.medizininformatik-initiative.de/fhir/ext/modul-onko/CodeSystem/mii-cs-onko-allgemeiner-leistungszustand-ecog",
          "code": "2",
          "display": "Gehfähig, Selbstversorgung möglich, aber nicht arbeitsfähig; kann mehr als 50 % der Wachzeit aufstehen (50 - 60 % nach Karnofsky)"
        }, {
          "system": "http://loinc.org",
          "version": "2.80",
          "code": "LA9624-3",
          "display": "Ambulatory and capable of all selfcare but unable to carry out any work activities. Up and about more than 50% of waking hours"
        } ]
      }
    },
    "request": {
      "method": "PUT",
      "url": "Observation/e3d251e35335c6faea888d63606d8ed2bcbc690abb50205bf4d9d7439951dc11"
    }
  }, {
    "fullUrl": "Specimen/7a880efa9b000b5d6c1016d39ae5c447758915ced0c3d666958651a14f9e371d",
    "resource": {
      "resourceType": "Specimen",
      "id": "7a880efa9b000b5d6c1016d39ae5c447758915ced0c3d666958651a14f9e371d",
      "meta": {
        "profile": [ "https://www.medizininformatik-initiative.de/fhir/ext/modul-onko/StructureDefinition/mii-pr-onko-specimen" ]
      },
      "identifier": [ {
        "system": "https://bzkf.github.io/obds-to-fhir/identifiers/histologie-specimen-id",
        "value": "260"
      } ],
      "accessionIdentifier": {
        "value": "H23201/2021"
      },
      "subject": {
        "reference": "Patient/9142ee3ff7990f826ada966f03da267e0fe662f73858158f5e868b772cd68730"
      },
      "collection": {
        "collectedDateTime": "2021-09-14"
      }
    },
    "request": {
      "method": "PUT",
      "url": "Specimen/7a880efa9b000b5d6c1016d39ae5c447758915ced0c3d666958651a14f9e371d"
    }
  }, {
    "fullUrl": "Observation/04ce4d27110afac225f6d96c58e2b5627a82f1a515be3c5356d705c3a40e6019",
    "resource": {
      "resourceType": "Observation",
      "id": "04ce4d27110afac225f6d96c58e2b5627a82f1a515be3c5356d705c3a40e6019",
      "meta": {
        "profile": [ "https://www.medizininformatik-initiative.de/fhir/ext/modul-onko/StructureDefinition/mii-pr-onko-histologie-icdo3" ]
      },
      "identifier": [ {
        "system": "https://bzkf.github.io/obds-to-fhir/identifiers/verlaufshistologie-observation-id",
        "value": "260-ICDO3-8500-3"
      } ],
      "status": "final",
      "code": {
        "coding": [ {
          "system": "http://loinc.org",
          "version": "2.80",
          "code": "59847-4",
          "display": "Histology and Behavior ICD-O-3 Cancer"
        } ]
      },
      "subject": {
        "reference": "Patient/9142ee3ff7990f826ada966f03da267e0fe662f73858158f5e868b772cd68730"
      },
      "focus": [ {
        "reference": "Condition/57fe05a96c5aea16ea6ccf644f5da4afb7b73f8e9390e11bf7fff7a95d08edae"
      } ],
      "effectiveDateTime": "2021-09-14",
      "valueCodeableConcept": {
        "coding": [ {
          "system": "http://terminology.hl7.org/CodeSystem/icd-o-3",
          "version": "31",
          "code": "8500/3"
        } ],
        "text": "Invasives duktales Karzinom o.n.A."
      },
      "specimen": {
        "reference": "Specimen/7a880efa9b000b5d6c1016d39ae5c447758915ced0c3d666958651a14f9e371d"
      }
    },
    "request": {
      "method": "PUT",
      "url": "Observation/04ce4d27110afac225f6d96c58e2b5627a82f1a515be3c5356d705c3a40e6019"
    }
  }, {
    "fullUrl": "Observation/e5f3ff74665a599fb92bc0aa91d5a56b5eb24ca23987748d07dd7397852ec885",
    "resource": {
      "resourceType": "Observation",
      "id": "e5f3ff74665a599fb92bc0aa91d5a56b5eb24ca23987748d07dd7397852ec885",
      "meta": {
        "profile": [ "https://www.medizininformatik-initiative.de/fhir/ext/modul-onko/StructureDefinition/mii-pr-onko-grading" ]
      },
      "identifier": [ {
        "system": "https://bzkf.github.io/obds-to-fhir/identifiers/grading-observation-id",
        "value": "260-grading"
      } ],
      "status": "final",
      "category": [ {
        "coding": [ {
          "system": "http://terminology.hl7.org/CodeSystem/observation-category",
          "code": "laboratory"
        } ]
      } ],
      "code": {
        "coding": [ {
          "system": "http://loinc.org",
          "version": "2.80",
          "code": "33732-9",
          "display": "Histology grade [Identifier] in Cancer specimen"
        }, {
          "system": "http://snomed.info/sct",
          "version": "http://snomed.info/sct/900000000000207008/version/20250501",
          "code": "371469007",
          "display": "Histologic grade of neoplasm (observable entity)"
        } ]
      },
      "subject": {
        "reference": "Patient/9142ee3ff7990f826ada966f03da267e0fe662f73858158f5e868b772cd68730"
      },
      "focus": [ {
        "reference": "Condition/57fe05a96c5aea16ea6ccf644f5da4afb7b73f8e9390e11bf7fff7a95d08edae"
      } ],
      "effectiveDateTime": "2021-09-14",
      "valueCodeableConcept": {
        "coding": [ {
          "system": "https://www.medizininformatik-initiative.de/fhir/ext/modul-onko/CodeSystem/mii-cs-onko-grading",
          "code": "3"
        } ]
      },
      "specimen": {
        "reference": "Specimen/7a880efa9b000b5d6c1016d39ae5c447758915ced0c3d666958651a14f9e371d"
      }
    },
    "request": {
      "method": "PUT",
      "url": "Observation/e5f3ff74665a599fb92bc0aa91d5a56b5eb24ca23987748d07dd7397852ec885"
    }
  }, {
    "fullUrl": "Observation/620d208fc96ed25e8c5cc6ca7b2a63ee30e439c7fe447e2655d471112bc4d040",
    "resource": {
      "resourceType": "Observation",
      "id": "620d208fc96ed25e8c5cc6ca7b2a63ee30e439c7fe447e2655d471112bc4d040",
      "meta": {
        "profile": [ "https://www.medizininformatik-initiative.de/fhir/ext/modul-onko/StructureDefinition/mii-pr-onko-tnm-t-kategorie" ]
      },
      "identifier": [ {
        "system": "https://bzkf.github.io/obds-to-fhir/identifiers/tnm-t-kategorie-observation-id",
        "value": "247-T"
      } ],
      "status": "final",
      "code": {
        "extension": [ {
          "url": "https://www.medizininformatik-initiative.de/fhir/ext/modul-onko/StructureDefinition/mii-ex-onko-tnm-cp-praefix",
          "valueCodeableConcept": {
            "coding": [ {
              "system": "https://www.uicc.org/resources/tnm",
              "code": "c"
            } ]
          }
        } ],
        "coding": [ {
          "system": "http://snomed.info/sct",
          "version": "http://snomed.info/sct/900000000000207008/version/20250501",
          "code": "399504009",
          "display": "cT category (observable entity)"
        } ]
      },
      "subject": {
        "reference": "Patient/9142ee3ff7990f826ada966f03da267e0fe662f73858158f5e868b772cd68730"
      },
      "focus": [ {
        "reference": "Condition/57fe05a96c5aea16ea6ccf644f5da4afb7b73f8e9390e11bf7fff7a95d08edae"
      } ],
      "effectiveDateTime": "2021-09-14",
      "valueCodeableConcept": {
        "coding": [ {
          "system": "https://www.uicc.org/resources/tnm",
          "code": "T1c"
        } ]
      },
      "method": {
        "coding": [ {
          "system": "https://www.medizininformatik-initiative.de/fhir/ext/modul-onko/CodeSystem/mii-cs-onko-tnm-version",
          "code": "8"
        } ]
      }
    },
    "request": {
      "method": "PUT",
      "url": "Observation/620d208fc96ed25e8c5cc6ca7b2a63ee30e439c7fe447e2655d471112bc4d040"
    }
  }, {
    "fullUrl": "Observation/55172754003bbb6c4f9b7294df3fe51481f9351d5d76bad4f385ee49be9a5412",
    "resource": {
      "resourceType": "Observation",
      "id": "55172754003bbb6c4f9b7294df3fe51481f9351d5d76bad4f385ee49be9a5412",
      "meta": {
        "profile": [ "https://www.medizininformatik-initiative.de/fhir/ext/modul-onko/StructureDefinition/mii-pr-onko-tnm-n-kategorie" ]
      },
      "identifier": [ {
        "system": "https://bzkf.github.io/obds-to-fhir/identifiers/tnm-n-kategorie-observation-id",
        "value": "247-N"
      } ],
      "status": "final",
      "code": {
        "extension": [ {
          "url": "https://www.medizininformatik-initiative.de/fhir/ext/modul-onko/StructureDefinition/mii-ex-onko-tnm-cp-praefix",
          "valueCodeableConcept": {
            "coding": [ {
              "system": "https://www.uicc.org/resources/tnm",
              "code": "c"
            } ]
          }
        } ],
        "coding": [ {
          "system": "http://snomed.info/sct",
          "version": "http://snomed.info/sct/900000000000207008/version/20250501",
          "code": "399534004",
          "display": "cN category (observable entity)"
        } ]
      },
      "subject": {
        "reference": "Patient/9142ee3ff7990f826ada966f03da267e0fe662f73858158f5e868b772cd68730"
      },
      "focus": [ {
        "reference": "Condition/57fe05a96c5aea16ea6ccf644f5da4afb7b73f8e9390e11bf7fff7a95d08edae"
      } ],
      "effectiveDateTime": "2021-09-14",
      "valueCodeableConcept": {
        "coding": [ {
          "system": "https://www.uicc.org/resources/tnm",
          "code": "N1"
        } ]
      },
      "method": {
        "coding": [ {
          "system": "https://www.medizininformatik-initiative.de/fhir/ext/modul-onko/CodeSystem/mii-cs-onko-tnm-version",
          "code": "8"
        } ]
      }
    },
    "request": {
      "method": "PUT",
      "url": "Observation/55172754003bbb6c4f9b7294df3fe51481f9351d5d76bad4f385ee49be9a5412"
    }
  }, {
    "fullUrl": "Observation/a365d15d2c71a8784404c64c739af2d8b76abf34dc18dee58bcba73606c85bdf",
    "resource": {
      "resourceType": "Observation",
      "id": "a365d15d2c71a8784404c64c739af2d8b76abf34dc18dee58bcba73606c85bdf",
      "meta": {
        "profile": [ "https://www.medizininformatik-initiative.de/fhir/ext/modul-onko/StructureDefinition/mii-pr-onko-tnm-m-kategorie" ]
      },
      "identifier": [ {
        "system": "https://bzkf.github.io/obds-to-fhir/identifiers/tnm-m-kategorie-observation-id",
        "value": "247-M"
      } ],
      "status": "final",
      "code": {
        "extension": [ {
          "url": "https://www.medizininformatik-initiative.de/fhir/ext/modul-onko/StructureDefinition/mii-ex-onko-tnm-cp-praefix",
          "valueCodeableConcept": {
            "coding": [ {
              "system": "https://www.uicc.org/resources/tnm",
              "code": "c"
            } ]
          }
        } ],
        "coding": [ {
          "system": "http://snomed.info/sct",
          "version": "http://snomed.info/sct/900000000000207008/version/20250501",
          "code": "399387003",
          "display": "cM category (observable entity)"
        } ]
      },
      "subject": {
        "reference": "Patient/9142ee3ff7990f826ada966f03da267e0fe662f73858158f5e868b772cd68730"
      },
      "focus": [ {
        "reference": "Condition/57fe05a96c5aea16ea6ccf644f5da4afb7b73f8e9390e11bf7fff7a95d08edae"
      } ],
      "effectiveDateTime": "2021-09-14",
      "valueCodeableConcept": {
        "coding": [ {
          "system": "https://www.uicc.org/resources/tnm",
          "code": "M1"
        } ]
      },
      "method": {
        "coding": [ {
          "system": "https://www.medizininformatik-initiative.de/fhir/ext/modul-onko/CodeSystem/mii-cs-onko-tnm-version",
          "code": "8"
        } ]
      }
    },
    "request": {
      "method": "PUT",
      "url": "Observation/a365d15d2c71a8784404c64c739af2d8b76abf34dc18dee58bcba73606c85bdf"
    }
  }, {
    "fullUrl": "Observation/b35b3ce860585874c976922a037ba7430d1bd97d37f05f4aec3a877229763808",
    "resource": {
      "resourceType": "Observation",
      "id": "b35b3ce860585874c976922a037ba7430d1bd97d37f05f4aec3a877229763808",
      "meta": {
        "profile": [ "https://www.medizininformatik-initiative.de/fhir/ext/modul-onko/StructureDefinition/mii-pr-onko-tnm-l-kategorie" ]
      },
      "identifier": [ {
        "system": "https://bzkf.github.io/obds-to-fhir/identifiers/tnm-l-kategorie-observation-id",
        "value": "247-L"
      } ],
      "status": "final",
      "code": {
        "coding": [ {
          "system": "http://snomed.info/sct",
          "version": "http://snomed.info/sct/900000000000207008/version/20250501",
          "code": "395715009",
          "display": "Status of lymphatic (small vessel) invasion by tumor (observable entity)"
        } ]
      },
      "subject": {
        "reference": "Patient/9142ee3ff7990f826ada966f03da267e0fe662f73858158f5e868b772cd68730"
      },
      "focus": [ {
        "reference": "Condition/57fe05a96c5aea16ea6ccf644f5da4afb7b73f8e9390e11bf7fff7a95d08edae"
      } ],
      "effectiveDateTime": "2021-09-14",
      "valueCodeableConcept": {
        "coding": [ {
          "system": "https://www.uicc.org/resources/tnm",
          "code": "L1"
        } ]
      },
      "method": {
        "coding": [ {
          "system": "https://www.medizininformatik-initiative.de/fhir/ext/modul-onko/CodeSystem/mii-cs-onko-tnm-version",
          "code": "8"
        } ]
      }
    },
    "request": {
      "method": "PUT",
      "url": "Observation/b35b3ce860585874c976922a037ba7430d1bd97d37f05f4aec3a877229763808"
    }
  }, {
    "fullUrl": "Observation/07579a07d1f8b6392549619fa3dcacd97b7182d1afd098fe0d0b876ed316a787",
    "resource": {
      "resourceType": "Observation",
      "id": "07579a07d1f8b6392549619fa3dcacd97b7182d1afd098fe0d0b876ed316a787",
      "meta": {
        "profile": [ "https://www.medizininformatik-initiative.de/fhir/ext/modul-onko/StructureDefinition/mii-pr-onko-tnm-pn-kategorie" ]
      },
      "identifier": [ {
        "system": "https://bzkf.github.io/obds-to-fhir/identifiers/tnm-pn-kategorie-observation-id",
        "value": "247-Pn"
      } ],
      "status": "final",
      "code": {
        "coding": [ {
          "system": "http://snomed.info/sct",
          "version": "http://snomed.info/sct/900000000000207008/version/20250501",
          "code": "371513001",
          "display": "Presence of direct invasion by primary malignant neoplasm to nerve (observable entity)"
        } ]
      },
      "subject": {
        "reference": "Patient/9142ee3ff7990f826ada966f03da267e0fe662f73858158f5e868b772cd68730"
      },
      "focus": [ {
        "reference": "Condition/57fe05a96c5aea16ea6ccf644f5da4afb7b73f8e9390e11bf7fff7a95d08edae"
      } ],
      "effectiveDateTime": "2021-09-14",
      "valueCodeableConcept": {
        "coding": [ {
          "system": "https://www.uicc.org/resources/tnm",
          "code": "Pn1"
        } ]
      },
      "method": {
        "coding": [ {
          "system": "https://www.medizininformatik-initiative.de/fhir/ext/modul-onko/CodeSystem/mii-cs-onko-tnm-version",
          "code": "8"
        } ]
      }
    },
    "request": {
      "method": "PUT",
      "url": "Observation/07579a07d1f8b6392549619fa3dcacd97b7182d1afd098fe0d0b876ed316a787"
    }
  }, {
    "fullUrl": "Observation/734130b6c4ec4eb70e1471534130c3bea24913e44dd069018a493f13d46546a9",
    "resource": {
      "resourceType": "Observation",
      "id": "734130b6c4ec4eb70e1471534130c3bea24913e44dd069018a493f13d46546a9",
      "meta": {
        "profile": [ "https://www.medizininformatik-initiative.de/fhir/ext/modul-onko/StructureDefinition/mii-pr-onko-tnm-r-symbol" ]
      },
      "identifier": [ {
        "system": "https://bzkf.github.io/obds-to-fhir/identifiers/tnm-r-symbol-observation-id",
        "value": "247-r"
      } ],
      "status": "final",
      "code": {
        "coding": [ {
          "system": "http://loinc.org",
          "version": "2.80",
          "code": "101659-1",
          "display": "Cancer staging after tumor recurrence"
        } ]
      },
      "subject": {
        "reference": "Patient/9142ee3ff7990f826ada966f03da267e0fe662f73858158f5e868b772cd68730"
      },
      "focus": [ {
        "reference": "Condition/57fe05a96c5aea16ea6ccf644f5da4afb7b73f8e9390e11bf7fff7a95d08edae"
      } ],
      "effectiveDateTime": "2021-09-14",
      "valueCodeableConcept": {
        "coding": [ {
          "system": "http://snomed.info/sct",
          "version": "http://snomed.info/sct/900000000000207008/version/20250501",
          "code": "421188008",
          "display": "Tumor staging descriptor r (tumor staging)"
        } ]
      },
      "method": {
        "coding": [ {
          "system": "https://www.medizininformatik-initiative.de/fhir/ext/modul-onko/CodeSystem/mii-cs-onko-tnm-version",
          "code": "8"
        } ]
      }
    },
    "request": {
      "method": "PUT",
      "url": "Observation/734130b6c4ec4eb70e1471534130c3bea24913e44dd069018a493f13d46546a9"
    }
  }, {
    "fullUrl": "Observation/15372572e0938689d2b633cb4631c3412b38f44f5b62862b69dad7fdd3c458b3",
    "resource": {
      "resourceType": "Observation",
      "id": "15372572e0938689d2b633cb4631c3412b38f44f5b62862b69dad7fdd3c458b3",
      "meta": {
        "profile": [ "https://www.medizininformatik-initiative.de/fhir/ext/modul-onko/StructureDefinition/mii-pr-onko-tnm-v-kategorie" ]
      },
      "identifier": [ {
        "system": "https://bzkf.github.io/obds-to-fhir/identifiers/tnm-v-kategorie-observation-id",
        "value": "247-V"
      } ],
      "status": "final",
      "code": {
        "coding": [ {
          "system": "http://snomed.info/sct",
          "version": "http://snomed.info/sct/900000000000207008/version/20250501",
          "code": "371493002",
          "display": "Status of venous (large vessel) invasion by tumor (observable entity)"
        } ]
      },
      "subject": {
        "reference": "Patient/9142ee3ff7990f826ada966f03da267e0fe662f73858158f5e868b772cd68730"
      },
      "focus": [ {
        "reference": "Condition/57fe05a96c5aea16ea6ccf644f5da4afb7b73f8e9390e11bf7fff7a95d08edae"
      } ],
      "effectiveDateTime": "2021-09-14",
      "valueCodeableConcept": {
        "coding": [ {
          "system": "https://www.uicc.org/resources/tnm",
          "code": "V1"
        } ]
      },
      "method": {
        "coding": [ {
          "system": "https://www.medizininformatik-initiative.de/fhir/ext/modul-onko/CodeSystem/mii-cs-onko-tnm-version",
          "code": "8"
        } ]
      }
    },
    "request": {
      "method": "PUT",
      "url": "Observation/15372572e0938689d2b633cb4631c3412b38f44f5b62862b69dad7fdd3c458b3"
    }
  }, {
    "fullUrl": "Observation/a1f3e52a64932685b8f482c9464dbef6183c04b2f7ec232e8e3e425b73e641a7",
    "resource": {
      "resourceType": "Observation",
      "id": "a1f3e52a64932685b8f482c9464dbef6183c04b2f7ec232e8e3e425b73e641a7",
      "meta": {
        "profile": [ "https://www.medizininformatik-initiative.de/fhir/ext/modul-onko/StructureDefinition/mii-pr-onko-tnm-klassifikation" ]
      },
      "identifier": [ {
        "system": "https://bzkf.github.io/obds-to-fhir/identifiers/tnm-grouping-observation-id",
        "value": "247"
      } ],
      "status": "final",
      "code": {
        "coding": [ {
          "system": "http://snomed.info/sct",
          "version": "http://snomed.info/sct/900000000000207008/version/20250501",
          "code": "399390009",
          "display": "TNM stage grouping"
        } ]
      },
      "subject": {
        "reference": "Patient/9142ee3ff7990f826ada966f03da267e0fe662f73858158f5e868b772cd68730"
      },
      "focus": [ {
        "reference": "Condition/57fe05a96c5aea16ea6ccf644f5da4afb7b73f8e9390e11bf7fff7a95d08edae"
      } ],
      "effectiveDateTime": "2021-09-14",
      "valueCodeableConcept": {
        "coding": [ {
          "system": "https://www.uicc.org/resources/tnm",
          "code": "IV",
          "display": "Stadium IV"
        } ]
      },
      "method": {
        "coding": [ {
          "system": "https://www.medizininformatik-initiative.de/fhir/ext/modul-onko/CodeSystem/mii-cs-onko-tnm-version",
          "code": "8"
        } ]
      },
      "hasMember": [ {
        "reference": "Observation/620d208fc96ed25e8c5cc6ca7b2a63ee30e439c7fe447e2655d471112bc4d040"
      }, {
        "reference": "Observation/55172754003bbb6c4f9b7294df3fe51481f9351d5d76bad4f385ee49be9a5412"
      }, {
        "reference": "Observation/a365d15d2c71a8784404c64c739af2d8b76abf34dc18dee58bcba73606c85bdf"
      }, {
        "reference": "Observation/b35b3ce860585874c976922a037ba7430d1bd97d37f05f4aec3a877229763808"
      }, {
        "reference": "Observation/07579a07d1f8b6392549619fa3dcacd97b7182d1afd098fe0d0b876ed316a787"
      }, {
        "reference": "Observation/734130b6c4ec4eb70e1471534130c3bea24913e44dd069018a493f13d46546a9"
      }, {
        "reference": "Observation/15372572e0938689d2b633cb4631c3412b38f44f5b62862b69dad7fdd3c458b3"
      } ]
    },
    "request": {
      "method": "PUT",
      "url": "Observation/a1f3e52a64932685b8f482c9464dbef6183c04b2f7ec232e8e3e425b73e641a7"
    }
  }, {
    "fullUrl": "Procedure/7235df9cd9b20c4e863029e1bfbda394ef3941e2086340b9f19e0ff64ef618ec",
    "resource": {
      "resourceType": "Procedure",
      "id": "7235df9cd9b20c4e863029e1bfbda394ef3941e2086340b9f19e0ff64ef618ec",
      "meta": {
        "profile": [ "https://www.medizininformatik-initiative.de/fhir/ext/modul-onko/StructureDefinition/mii-pr-onko-strahlentherapie" ]
      },
      "extension": [ {
        "url": "https://www.medizininformatik-initiative.de/fhir/ext/modul-onko/StructureDefinition/mii-ex-onko-strahlentherapie-intention",
        "valueCodeableConcept": {
          "coding": [ {
            "system": "https://www.medizininformatik-initiative.de/fhir/ext/modul-onko/CodeSystem/mii-cs-onko-intention",
            "code": "K"
          } ]
        }
      }, {
        "url": "https://www.medizininformatik-initiative.de/fhir/ext/modul-onko/StructureDefinition/mii-ex-onko-strahlentherapie-stellungzurop",
        "valueCodeableConcept": {
          "coding": [ {
            "system": "https://www.medizininformatik-initiative.de/fhir/ext/modul-onko/CodeSystem/mii-cs-onko-therapie-stellungzurop",
            "code": "A"
          } ]
        }
      } ],
      "identifier": [ {
        "system": "https://bzkf.github.io/obds-to-fhir/identifiers/strahlentherapie-procedure-id",
        "value": "60_1_ST_1"
      } ],
      "status": "completed",
      "category": {
        "coding": [ {
          "system": "http://snomed.info/sct",
          "version": "http://snomed.info/sct/900000000000207008/version/20250501",
          "code": "1287742003",
          "display": "Radiotherapy (procedure)"
        } ]
      },
      "code": {
        "coding": [ {
          "system": "http://fhir.de/CodeSystem/bfarm/ops",
          "version": "2025",
          "code": "8-52",
          "display": "Strahlentherapie"
        } ]
      },
      "subject": {
        "reference": "Patient/9142ee3ff7990f826ada966f03da267e0fe662f73858158f5e868b772cd68730"
      },
      "performedPeriod": {
        "start": "2020-06-12",
        "end": "2020-07-15"
      },
      "reasonReference": [ {
        "reference": "Condition/57fe05a96c5aea16ea6ccf644f5da4afb7b73f8e9390e11bf7fff7a95d08edae"
      } ],
      "outcome": {
        "coding": [ {
          "system": "https://www.medizininformatik-initiative.de/fhir/ext/modul-onko/CodeSystem/mii-cs-onko-therapie-ende-grund",
          "code": "E"
        } ]
      }
    },
    "request": {
      "method": "PUT",
      "url": "Procedure/7235df9cd9b20c4e863029e1bfbda394ef3941e2086340b9f19e0ff64ef618ec"
    }
  }, {
    "fullUrl": "Procedure/8f8e7c512b0bf9d1f11cab01cdc7a6f63557adf19ca6bed3e9639e3e82052e39",
    "resource": {
      "resourceType": "Procedure",
      "id": "8f8e7c512b0bf9d1f11cab01cdc7a6f63557adf19ca6bed3e9639e3e82052e39",
      "meta": {
        "profile": [ "https://www.medizininformatik-initiative.de/fhir/ext/modul-onko/StructureDefinition/mii-pr-onko-strahlentherapie-bestrahlung-strahlentherapie" ]
      },
      "extension": [ {
        "url": "http://hl7.org/fhir/StructureDefinition/procedure-method",
        "valueCodeableConcept": {
          "coding": [ {
            "system": "https://www.medizininformatik-initiative.de/fhir/ext/modul-onko/CodeSystem/mii-cs-onko-strahlentherapie-applikationsart",
            "code": "PRCN"
          } ]
        }
      }, {
        "url": "https://www.medizininformatik-initiative.de/fhir/ext/modul-onko/StructureDefinition/mii-ex-onko-strahlentherapie-bestrahlung-gesamtdosis",
        "valueQuantity": {
          "value": 58.8,
          "unit": "Gy",
          "system": "http://unitsofmeasure.org",
          "code": "Gy"
        }
      }, {
        "url": "https://www.medizininformatik-initiative.de/fhir/ext/modul-onko/StructureDefinition/mii-ex-onko-strahlentherapie-bestrahlung-einzeldosis",
        "valueQuantity": {
          "value": 1.8,
          "unit": "Gy",
          "system": "http://unitsofmeasure.org",
          "code": "Gy"
        }
      }, {
        "url": "https://www.medizininformatik-initiative.de/fhir/ext/modul-onko/StructureDefinition/mii-ex-onko-strahlentherapie-bestrahlung-boost",
        "valueCodeableConcept": {
          "coding": [ {
            "system": "https://www.medizininformatik-initiative.de/fhir/ext/modul-onko/CodeSystem/mii-cs-onko-strahlentherapie-boost",
            "code": "SIB"
          } ]
        }
      } ],
      "identifier": [ {
        "system": "https://bzkf.github.io/obds-to-fhir/identifiers/strahlentherapie-bestrahlung-procedure-id",
        "value": "60_1_ST_1-0"
      } ],
      "partOf": [ {
        "reference": "Procedure/7235df9cd9b20c4e863029e1bfbda394ef3941e2086340b9f19e0ff64ef618ec"
      } ],
      "status": "completed",
      "category": {
        "coding": [ {
          "system": "http://snomed.info/sct",
          "version": "http://snomed.info/sct/900000000000207008/version/20250501",
          "code": "1287742003",
          "display": "Radiotherapy (procedure)"
        } ]
      },
      "code": {
        "coding": [ {
          "system": "http://fhir.de/CodeSystem/bfarm/ops",
          "version": "2025",
          "code": "8-52",
          "display": "Strahlentherapie"
        } ]
      },
      "subject": {
        "reference": "Patient/9142ee3ff7990f826ada966f03da267e0fe662f73858158f5e868b772cd68730"
      },
      "performedPeriod": {
        "start": "2020-06-12",
        "end": "2020-07-15"
      },
      "bodySite": [ {
        "extension": [ {
          "url": "https://www.medizininformatik-initiative.de/fhir/ext/modul-onko/StructureDefinition/mii-ex-onko-strahlentherapie-bestrahlung-seitenlokalisation",
          "valueCodeableConcept": {
            "coding": [ {
              "system": "https://www.medizininformatik-initiative.de/fhir/ext/modul-onko/CodeSystem/mii-cs-onko-seitenlokalisation",
              "code": "R"
            } ]
          }
        } ],
        "coding": [ {
          "system": "https://www.medizininformatik-initiative.de/fhir/ext/modul-onko/CodeSystem/mii-cs-onko-strahlentherapie-zielgebiet",
          "code": "3.1.+"
        } ]
      } ]
    },
    "request": {
      "method": "PUT",
      "url": "Procedure/8f8e7c512b0bf9d1f11cab01cdc7a6f63557adf19ca6bed3e9639e3e82052e39"
    }
  }, {
    "fullUrl": "AdverseEvent/a0900717af2614ed63518613ceae92966f32f4b50a9b44e93e6fb5b5635a7bf0",
    "resource": {
      "resourceType": "AdverseEvent",
      "id": "a0900717af2614ed63518613ceae92966f32f4b50a9b44e93e6fb5b5635a7bf0",
      "meta": {
        "profile": [ "https://www.medizininformatik-initiative.de/fhir/ext/modul-onko/StructureDefinition/mii-pr-onko-nebenwirkung-adverse-event" ]
      },
      "identifier": {
        "system": "https://bzkf.github.io/obds-to-fhir/identifiers/nebenwirkung-adverse-event-id",
        "value": "mii-pr-onko-nebenwirkung-60_1_ST_1-0"
      },
      "actuality": "actual",
      "event": {
        "extension": [ {
          "url": "http://hl7.org/fhir/StructureDefinition/data-absent-reason",
          "valueCode": "unknown"
        } ],
        "text": "Strahlendermatitis"
      },
      "subject": {
        "reference": "Patient/9142ee3ff7990f826ada966f03da267e0fe662f73858158f5e868b772cd68730"
      },
      "seriousness": {
        "coding": [ {
          "system": "https://www.medizininformatik-initiative.de/fhir/ext/modul-onko/CodeSystem/mii-cs-onko-nebenwirkung-ctcae-grad",
          "code": "3"
        } ]
      },
      "suspectEntity": [ {
        "instance": {
          "reference": "Procedure/7235df9cd9b20c4e863029e1bfbda394ef3941e2086340b9f19e0ff64ef618ec"
        }
      } ]
    },
    "request": {
      "method": "PUT",
      "url": "AdverseEvent/a0900717af2614ed63518613ceae92966f32f4b50a9b44e93e6fb5b5635a7bf0"
    }
  }, {
    "fullUrl": "CarePlan/87fd2ca0c7c1180e754c383c0a50580c47a4211518fa52fe8868de8540b9ff34",
    "resource": {
      "resourceType": "CarePlan",
      "id": "87fd2ca0c7c1180e754c383c0a50580c47a4211518fa52fe8868de8540b9ff34",
      "meta": {
        "profile": [ "https://www.medizininformatik-initiative.de/fhir/ext/modul-onko/StructureDefinition/mii-pr-onko-tumorkonferenz" ]
      },
      "identifier": [ {
        "system": "https://bzkf.github.io/obds-to-fhir/identifiers/tumorkonferenz-care-plan-id",
        "value": "Tumorkonferenz-109"
      } ],
      "status": "completed",
      "intent": "plan",
      "category": [ {
        "coding": [ {
          "system": "https://www.medizininformatik-initiative.de/fhir/ext/modul-onko/CodeSystem/mii-cs-onko-therapieplanung-typ",
          "code": "postop"
        } ]
      } ],
      "subject": {
        "reference": "Patient/9142ee3ff7990f826ada966f03da267e0fe662f73858158f5e868b772cd68730"
      },
      "created": "2020-03-10",
      "addresses": [ {
        "reference": "Condition/57fe05a96c5aea16ea6ccf644f5da4afb7b73f8e9390e11bf7fff7a95d08edae"
      } ],
      "activity": [ {
        "detail": {
          "code": {
            "coding": [ {
              "system": "https://www.medizininformatik-initiative.de/fhir/ext/modul-onko/CodeSystem/mii-cs-onko-therapie-typ",
              "code": "CH"
            } ]
          },
          "status": "completed",
          "statusReason": {
            "coding": [ {
              "system": "https://www.medizininformatik-initiative.de/fhir/ext/modul-onko/CodeSystem/mii-cs-onko-therapieabweichung",
              "code": "N"
            } ]
          }
        }
      }, {
        "detail": {
          "code": {
            "coding": [ {
              "system": "https://www.medizininformatik-initiative.de/fhir/ext/modul-onko/CodeSystem/mii-cs-onko-therapie-typ",
              "code": "ST"
            } ]
          },
          "status": "completed",
          "statusReason": {
            "coding": [ {
              "system": "https://www.medizininformatik-initiative.de/fhir/ext/modul-onko/CodeSystem/mii-cs-onko-therapieabweichung",
              "code": "N"
            } ]
          }
        }
      }, {
        "detail": {
          "code": {
            "coding": [ {
              "system": "https://www.medizininformatik-initiative.de/fhir/ext/modul-onko/CodeSystem/mii-cs-onko-therapie-typ",
              "code": "HO"
            } ]
          },
          "status": "completed",
          "statusReason": {
            "coding": [ {
              "system": "https://www.medizininformatik-initiative.de/fhir/ext/modul-onko/CodeSystem/mii-cs-onko-therapieabweichung",
              "code": "N"
            } ]
          }
        }
      } ]
    },
    "request": {
      "method": "PUT",
      "url": "CarePlan/87fd2ca0c7c1180e754c383c0a50580c47a4211518fa52fe8868de8540b9ff34"
    }
  }, {
    "fullUrl": "Observation/b6fd26e16e61fdab680a3578c55dd2b4d167956df235d345ed5070e86ebe1610",
    "resource": {
      "resourceType": "Observation",
      "id": "b6fd26e16e61fdab680a3578c55dd2b4d167956df235d345ed5070e86ebe1610",
      "meta": {
        "profile": [ "https://www.medizininformatik-initiative.de/fhir/ext/modul-onko/StructureDefinition/mii-pr-onko-allgemeiner-leistungszustand-ecog" ]
      },
      "identifier": [ {
        "system": "https://bzkf.github.io/obds-to-fhir/identifiers/allgemeiner-leistungszustand-ecog-id",
        "value": "ECOG-DIA_60103"
      } ],
      "status": "final",
      "code": {
        "coding": [ {
          "system": "http://snomed.info/sct",
          "version": "http://snomed.info/sct/900000000000207008/version/20250501",
          "code": "423740007",
          "display": "Eastern Cooperative Oncology Group performance status (observable entity)"
        }, {
          "system": "http://loinc.org",
          "version": "2.80",
          "code": "89262-0",
          "display": "ECOG Performance Status [Interpretation]"
        } ]
      },
      "subject": {
        "reference": "Patient/9142ee3ff7990f826ada966f03da267e0fe662f73858158f5e868b772cd68730"
      },
      "focus": [ {
        "reference": "Condition/57fe05a96c5aea16ea6ccf644f5da4afb7b73f8e9390e11bf7fff7a95d08edae"
      } ],
      "effectiveDateTime": "2020-02-16",
      "valueCodeableConcept": {
        "coding": [ {
          "system": "https://www.medizininformatik-initiative.de/fhir/ext/modul-onko/CodeSystem/mii-cs-onko-allgemeiner-leistungszustand-ecog",
          "code": "0",
          "display": "Normale, uneingeschränkte Aktivität wie vor der Erkrankung (90 - 100 % nach Karnofsky)"
        }, {
          "system": "http://loinc.org",
          "version": "2.80",
          "code": "LA9622-7",
          "display": "Fully active, able to carry on all pre-disease performance without restriction"
        } ]
      }
    },
    "request": {
      "method": "PUT",
      "url": "Observation/b6fd26e16e61fdab680a3578c55dd2b4d167956df235d345ed5070e86ebe1610"
    }
  }, {
    "fullUrl": "Specimen/8b23caad39691d6b5693b53436451eeb9c3b3834bf5bb2d0ece7cc71c250c583",
    "resource": {
      "resourceType": "Specimen",
      "id": "8b23caad39691d6b5693b53436451eeb9c3b3834bf5bb2d0ece7cc71c250c583",
      "meta": {
        "profile": [ "https://www.medizininformatik-initiative.de/fhir/ext/modul-onko/StructureDefinition/mii-pr-onko-specimen" ]
      },
      "identifier": [ {
        "system": "https://bzkf.github.io/obds-to-fhir/identifiers/histologie-specimen-id",
        "value": "261"
      } ],
      "accessionIdentifier": {
        "value": "H1576/2020"
      },
      "subject": {
        "reference": "Patient/9142ee3ff7990f826ada966f03da267e0fe662f73858158f5e868b772cd68730"
      },
      "collection": {
        "collectedDateTime": "2020-02-16"
      }
    },
    "request": {
      "method": "PUT",
      "url": "Specimen/8b23caad39691d6b5693b53436451eeb9c3b3834bf5bb2d0ece7cc71c250c583"
    }
  }, {
    "fullUrl": "Observation/fb96424cc00fca5db9a5e15f38ff61b952e4b230886be11a5afe31cbc2e23991",
    "resource": {
      "resourceType": "Observation",
      "id": "fb96424cc00fca5db9a5e15f38ff61b952e4b230886be11a5afe31cbc2e23991",
      "meta": {
        "profile": [ "https://www.medizininformatik-initiative.de/fhir/ext/modul-onko/StructureDefinition/mii-pr-onko-grading" ]
      },
      "identifier": [ {
        "system": "https://bzkf.github.io/obds-to-fhir/identifiers/grading-observation-id",
        "value": "261-grading"
      } ],
      "status": "final",
      "category": [ {
        "coding": [ {
          "system": "http://terminology.hl7.org/CodeSystem/observation-category",
          "code": "laboratory"
        } ]
      } ],
      "code": {
        "coding": [ {
          "system": "http://loinc.org",
          "version": "2.80",
          "code": "33732-9",
          "display": "Histology grade [Identifier] in Cancer specimen"
        }, {
          "system": "http://snomed.info/sct",
          "version": "http://snomed.info/sct/900000000000207008/version/20250501",
          "code": "371469007",
          "display": "Histologic grade of neoplasm (observable entity)"
        } ]
      },
      "subject": {
        "reference": "Patient/9142ee3ff7990f826ada966f03da267e0fe662f73858158f5e868b772cd68730"
      },
      "focus": [ {
        "reference": "Condition/57fe05a96c5aea16ea6ccf644f5da4afb7b73f8e9390e11bf7fff7a95d08edae"
      } ],
      "effectiveDateTime": "2020-02-16",
      "valueCodeableConcept": {
        "coding": [ {
          "system": "https://www.medizininformatik-initiative.de/fhir/ext/modul-onko/CodeSystem/mii-cs-onko-grading",
          "code": "2"
        } ]
      },
      "specimen": {
        "reference": "Specimen/8b23caad39691d6b5693b53436451eeb9c3b3834bf5bb2d0ece7cc71c250c583"
      }
    },
    "request": {
      "method": "PUT",
      "url": "Observation/fb96424cc00fca5db9a5e15f38ff61b952e4b230886be11a5afe31cbc2e23991"
    }
  }, {
    "fullUrl": "Observation/7ff610c9bf2e197ddbf1d39e141743d50bf78fe4c47996a1a02e6e0ce8ce2e4d",
    "resource": {
      "resourceType": "Observation",
      "id": "7ff610c9bf2e197ddbf1d39e141743d50bf78fe4c47996a1a02e6e0ce8ce2e4d",
      "meta": {
        "profile": [ "https://www.medizininformatik-initiative.de/fhir/ext/modul-onko/StructureDefinition/mii-pr-onko-tnm-t-kategorie" ]
      },
      "identifier": [ {
        "system": "https://bzkf.github.io/obds-to-fhir/identifiers/tnm-t-kategorie-observation-id",
        "value": "248-c-T"
      } ],
      "status": "final",
      "code": {
        "extension": [ {
          "url": "https://www.medizininformatik-initiative.de/fhir/ext/modul-onko/StructureDefinition/mii-ex-onko-tnm-cp-praefix",
          "valueCodeableConcept": {
            "coding": [ {
              "system": "https://www.uicc.org/resources/tnm",
              "code": "c"
            } ]
          }
        } ],
        "coding": [ {
          "system": "http://snomed.info/sct",
          "version": "http://snomed.info/sct/900000000000207008/version/20250501",
          "code": "399504009",
          "display": "cT category (observable entity)"
        } ]
      },
      "subject": {
        "reference": "Patient/9142ee3ff7990f826ada966f03da267e0fe662f73858158f5e868b772cd68730"
      },
      "focus": [ {
        "reference": "Condition/57fe05a96c5aea16ea6ccf644f5da4afb7b73f8e9390e11bf7fff7a95d08edae"
      } ],
      "effectiveDateTime": "2020-02-16",
      "valueCodeableConcept": {
        "coding": [ {
          "system": "https://www.uicc.org/resources/tnm",
          "code": "T1c"
        } ]
      },
      "method": {
        "coding": [ {
          "system": "https://www.medizininformatik-initiative.de/fhir/ext/modul-onko/CodeSystem/mii-cs-onko-tnm-version",
          "code": "8"
        } ]
      }
    },
    "request": {
      "method": "PUT",
      "url": "Observation/7ff610c9bf2e197ddbf1d39e141743d50bf78fe4c47996a1a02e6e0ce8ce2e4d"
    }
  }, {
    "fullUrl": "Observation/888711f2a80e4c8d6e3fab4fc8151633b38d67baf0359f464ff668bb120e4434",
    "resource": {
      "resourceType": "Observation",
      "id": "888711f2a80e4c8d6e3fab4fc8151633b38d67baf0359f464ff668bb120e4434",
      "meta": {
        "profile": [ "https://www.medizininformatik-initiative.de/fhir/ext/modul-onko/StructureDefinition/mii-pr-onko-tnm-n-kategorie" ]
      },
      "identifier": [ {
        "system": "https://bzkf.github.io/obds-to-fhir/identifiers/tnm-n-kategorie-observation-id",
        "value": "248-c-N"
      } ],
      "status": "final",
      "code": {
        "extension": [ {
          "url": "https://www.medizininformatik-initiative.de/fhir/ext/modul-onko/StructureDefinition/mii-ex-onko-tnm-cp-praefix",
          "valueCodeableConcept": {
            "coding": [ {
              "system": "https://www.uicc.org/resources/tnm",
              "code": "c"
            } ]
          }
        } ],
        "coding": [ {
          "system": "http://snomed.info/sct",
          "version": "http://snomed.info/sct/900000000000207008/version/20250501",
          "code": "399534004",
          "display": "cN category (observable entity)"
        } ]
      },
      "subject": {
        "reference": "Patient/9142ee3ff7990f826ada966f03da267e0fe662f73858158f5e868b772cd68730"
      },
      "focus": [ {
        "reference": "Condition/57fe05a96c5aea16ea6ccf644f5da4afb7b73f8e9390e11bf7fff7a95d08edae"
      } ],
      "effectiveDateTime": "2020-02-16",
      "valueCodeableConcept": {
        "coding": [ {
          "system": "https://www.uicc.org/resources/tnm",
          "code": "N0"
        } ]
      },
      "method": {
        "coding": [ {
          "system": "https://www.medizininformatik-initiative.de/fhir/ext/modul-onko/CodeSystem/mii-cs-onko-tnm-version",
          "code": "8"
        } ]
      }
    },
    "request": {
      "method": "PUT",
      "url": "Observation/888711f2a80e4c8d6e3fab4fc8151633b38d67baf0359f464ff668bb120e4434"
    }
  }, {
    "fullUrl": "Observation/4d8b9cef30d1bf02ca1ea109c7183c676200693ca3c4c620c951c5bf04322186",
    "resource": {
      "resourceType": "Observation",
      "id": "4d8b9cef30d1bf02ca1ea109c7183c676200693ca3c4c620c951c5bf04322186",
      "meta": {
        "profile": [ "https://www.medizininformatik-initiative.de/fhir/ext/modul-onko/StructureDefinition/mii-pr-onko-tnm-m-kategorie" ]
      },
      "identifier": [ {
        "system": "https://bzkf.github.io/obds-to-fhir/identifiers/tnm-m-kategorie-observation-id",
        "value": "248-c-M"
      } ],
      "status": "final",
      "code": {
        "extension": [ {
          "url": "https://www.medizininformatik-initiative.de/fhir/ext/modul-onko/StructureDefinition/mii-ex-onko-tnm-cp-praefix",
          "valueCodeableConcept": {
            "coding": [ {
              "system": "https://www.uicc.org/resources/tnm",
              "code": "c"
            } ]
          }
        } ],
        "coding": [ {
          "system": "http://snomed.info/sct",
          "version": "http://snomed.info/sct/900000000000207008/version/20250501",
          "code": "399387003",
          "display": "cM category (observable entity)"
        } ]
      },
      "subject": {
        "reference": "Patient/9142ee3ff7990f826ada966f03da267e0fe662f73858158f5e868b772cd68730"
      },
      "focus": [ {
        "reference": "Condition/57fe05a96c5aea16ea6ccf644f5da4afb7b73f8e9390e11bf7fff7a95d08edae"
      } ],
      "effectiveDateTime": "2020-02-16",
      "valueCodeableConcept": {
        "coding": [ {
          "system": "https://www.uicc.org/resources/tnm",
          "code": "M0"
        } ]
      },
      "method": {
        "coding": [ {
          "system": "https://www.medizininformatik-initiative.de/fhir/ext/modul-onko/CodeSystem/mii-cs-onko-tnm-version",
          "code": "8"
        } ]
      }
    },
    "request": {
      "method": "PUT",
      "url": "Observation/4d8b9cef30d1bf02ca1ea109c7183c676200693ca3c4c620c951c5bf04322186"
    }
  }, {
    "fullUrl": "Observation/23c409be8d9a996d3418af5d7a9bbf9fc113704f56ef5820c7e3d9060954c913",
    "resource": {
      "resourceType": "Observation",
      "id": "23c409be8d9a996d3418af5d7a9bbf9fc113704f56ef5820c7e3d9060954c913",
      "meta": {
        "profile": [ "https://www.medizininformatik-initiative.de/fhir/ext/modul-onko/StructureDefinition/mii-pr-onko-tnm-klassifikation" ]
      },
      "identifier": [ {
        "system": "https://bzkf.github.io/obds-to-fhir/identifiers/tnm-grouping-observation-id",
        "value": "248-c"
      } ],
      "status": "final",
      "code": {
        "coding": [ {
          "system": "http://snomed.info/sct",
          "version": "http://snomed.info/sct/900000000000207008/version/20250501",
          "code": "399537006",
          "display": "Clinical TNM stage grouping"
        } ]
      },
      "subject": {
        "reference": "Patient/9142ee3ff7990f826ada966f03da267e0fe662f73858158f5e868b772cd68730"
      },
      "focus": [ {
        "reference": "Condition/57fe05a96c5aea16ea6ccf644f5da4afb7b73f8e9390e11bf7fff7a95d08edae"
      } ],
      "effectiveDateTime": "2020-02-16",
      "valueCodeableConcept": {
        "coding": [ {
          "system": "https://www.uicc.org/resources/tnm",
          "code": "IA",
          "display": "Stadium IA"
        } ]
      },
      "method": {
        "coding": [ {
          "system": "https://www.medizininformatik-initiative.de/fhir/ext/modul-onko/CodeSystem/mii-cs-onko-tnm-version",
          "code": "8"
        } ]
      },
      "hasMember": [ {
        "reference": "Observation/7ff610c9bf2e197ddbf1d39e141743d50bf78fe4c47996a1a02e6e0ce8ce2e4d"
      }, {
        "reference": "Observation/888711f2a80e4c8d6e3fab4fc8151633b38d67baf0359f464ff668bb120e4434"
      }, {
        "reference": "Observation/4d8b9cef30d1bf02ca1ea109c7183c676200693ca3c4c620c951c5bf04322186"
      } ]
    },
    "request": {
      "method": "PUT",
      "url": "Observation/23c409be8d9a996d3418af5d7a9bbf9fc113704f56ef5820c7e3d9060954c913"
    }
  }, {
    "fullUrl": "List/03f37796811559cbf7fec7785a8f835fae0b70c21dd5f04ea9c6d692ff47f233",
    "resource": {
      "resourceType": "List",
      "id": "03f37796811559cbf7fec7785a8f835fae0b70c21dd5f04ea9c6d692ff47f233",
      "meta": {
        "profile": [ "https://www.medizininformatik-initiative.de/fhir/ext/modul-onko/StructureDefinition/mii-pr-onko-liste-evidenz-erstdiagnose" ]
      },
      "identifier": [ {
        "system": "https://bzkf.github.io/obds-to-fhir/identifiers/erstdiagnose-evidenz-list-id",
        "value": "60-601"
      } ],
      "status": "current",
      "mode": "snapshot",
      "title": "Liste der Evidenz zum Erstdiagnosezeitpunkt",
      "subject": {
        "reference": "Patient/9142ee3ff7990f826ada966f03da267e0fe662f73858158f5e868b772cd68730"
      },
      "entry": [ {
        "item": {
          "reference": "Observation/b6fd26e16e61fdab680a3578c55dd2b4d167956df235d345ed5070e86ebe1610"
        }
      }, {
        "item": {
          "reference": "Observation/fb96424cc00fca5db9a5e15f38ff61b952e4b230886be11a5afe31cbc2e23991"
        }
      }, {
        "item": {
          "reference": "Observation/7ff610c9bf2e197ddbf1d39e141743d50bf78fe4c47996a1a02e6e0ce8ce2e4d"
        }
      }, {
        "item": {
          "reference": "Observation/888711f2a80e4c8d6e3fab4fc8151633b38d67baf0359f464ff668bb120e4434"
        }
      }, {
        "item": {
          "reference": "Observation/4d8b9cef30d1bf02ca1ea109c7183c676200693ca3c4c620c951c5bf04322186"
        }
      }, {
        "item": {
          "reference": "Observation/23c409be8d9a996d3418af5d7a9bbf9fc113704f56ef5820c7e3d9060954c913"
        }
      } ]
    },
    "request": {
      "method": "PUT",
      "url": "List/03f37796811559cbf7fec7785a8f835fae0b70c21dd5f04ea9c6d692ff47f233"
    }
  }, {
    "fullUrl": "Condition/f8eaa21e15d667e3da84bc8e061ec9be96cbc36fd07cf63575e8626625d4f401",
    "resource": {
      "resourceType": "Condition",
      "id": "f8eaa21e15d667e3da84bc8e061ec9be96cbc36fd07cf63575e8626625d4f401",
      "meta": {
        "profile": [ "https://www.medizininformatik-initiative.de/fhir/ext/modul-onko/StructureDefinition/mii-pr-onko-fruehere-tumorerkrankung" ]
      },
      "extension": [ {
        "url": "http://hl7.org/fhir/StructureDefinition/condition-assertedDate",
        "valueDateTime": "1999"
      } ],
      "identifier": [ {
        "system": "https://bzkf.github.io/obds-to-fhir/identifiers/fruehere-tumorerkrankung-condition-id",
        "value": "60-601-C43-7-1999"
      } ],
      "category": [ {
        "coding": [ {
          "system": "http://snomed.info/sct",
          "version": "http://snomed.info/sct/900000000000207008/version/20250501",
          "code": "394593009",
          "display": "Medical oncology (qualifier value)"
        } ]
      } ],
      "code": {
        "coding": [ {
          "system": "http://fhir.de/CodeSystem/bfarm/icd-10-gm",
          "version": "2022",
          "code": "C43.7"
        } ],
        "text": "Malignes Melanom re. Oberschenkel"
      },
      "subject": {
        "reference": "Patient/9142ee3ff7990f826ada966f03da267e0fe662f73858158f5e868b772cd68730"
      },
      "recordedDate": "2024-02-16"
    },
    "request": {
      "method": "PUT",
      "url": "Condition/f8eaa21e15d667e3da84bc8e061ec9be96cbc36fd07cf63575e8626625d4f401"
    }
  } ]
}