{
  "resourceType": "Bundle",
  "id": "66eab990c3ab4a1dac96eecfa7189a4455b4a4e9d39b1813fa20e17b8cc564d2",
  "type": "transaction",
  "entry": [ {
    "fullUrl": "Patient/66eab990c3ab4a1dac96eecfa7189a4455b4a4e9d39b1813fa20e17b8cc564d2",
    "resource": {
      "resourceType": "Patient",
      "id": "66eab990c3ab4a1dac96eecfa7189a4455b4a4e9d39b1813fa20e17b8cc564d2",
      "meta": {
        "profile": [ "https://www.medizininformatik-initiative.de/fhir/core/modul-person/StructureDefinition/PatientPseudonymisiert" ]
      },
      "identifier": [ {
        "type": {
          "coding": [ {
            "system": "http://terminology.hl7.org/CodeSystem/v2-0203",
            "code": "MR",
            "display": "Medical record number"
          }, {
            "system": "http://terminology.hl7.org/CodeSystem/v3-ObservationValue",
            "code": "PSEUDED",
            "display": "pseudonymized"
          } ]
        },
        "system": "https://bzkf.github.io/obds-to-fhir/identifiers/patient-id",
        "value": "30"
      } ],
      "gender": "male",
      "birthDate": "1951-10-15",
      "address": [ {
        "type": "both",
        "postalCode": "35390",
        "country": "DE"
      } ]
    },
    "request": {
      "method": "PUT",
      "url": "Patient/66eab990c3ab4a1dac96eecfa7189a4455b4a4e9d39b1813fa20e17b8cc564d2"
    }
  }, {
    "fullUrl": "Condition/c3a22e56e7713786dbec08325f6c9273d20f584f29e92ce20ff0983fc5cee9af",
    "resource": {
      "resourceType": "Condition",
      "id": "c3a22e56e7713786dbec08325f6c9273d20f584f29e92ce20ff0983fc5cee9af",
      "meta": {
        "profile": [ "https://www.medizininformatik-initiative.de/fhir/ext/modul-onko/StructureDefinition/mii-pr-onko-diagnose-primaertumor" ]
      },
      "extension": [ {
        "url": "https://www.medizininformatik-initiative.de/fhir/ext/modul-onko/StructureDefinition/mii-ex-onko-histology-morphology-behavior-icdo3",
        "valueCodeableConcept": {
          "coding": [ {
            "system": "http://terminology.hl7.org/CodeSystem/icd-o-3",
            "version": "33",
            "code": "9823/3"
          } ],
          "text": "Chronisch lymphatische Leukämie"
        }
      }, {
        "url": "http://hl7.org/fhir/StructureDefinition/condition-assertedDate",
        "valueDateTime": "2015-04-03"
      } ],
      "identifier": [ {
        "system": "https://bzkf.github.io/obds-to-fhir/identifiers/primaerdiagnose-condition-id",
        "value": "30-301"
      } ],
      "verificationStatus": {
        "coding": [ {
          "system": "http://terminology.hl7.org/CodeSystem/condition-ver-status",
          "code": "confirmed"
        }, {
          "system": "https://www.medizininformatik-initiative.de/fhir/ext/modul-onko/CodeSystem/mii-cs-onko-primaertumor-diagnosesicherung",
          "code": "7"
        } ]
      },
      "code": {
        "coding": [ {
          "system": "http://fhir.de/CodeSystem/bfarm/icd-10-gm",
          "version": "2020",
          "code": "C91.1"
        } ]
      },
      "bodySite": [ {
        "coding": [ {
          "system": "http://terminology.hl7.org/CodeSystem/icd-o-3",
          "version": "33",
          "code": "C42.1"
        } ],
        "text": "Knochenmark"
      }, {
        "coding": [ {
          "system": "https://www.medizininformatik-initiative.de/fhir/ext/modul-onko/CodeSystem/mii-cs-onko-seitenlokalisation",
          "code": "T"
        }, {
          "system": "http://snomed.info/sct",
          "version": "http://snomed.info/sct/900000000000207008/version/20250501",
          "code": "385432009",
          "display": "Not applicable (qualifier value)"
        } ]
      } ],
      "subject": {
        "reference": "Patient/66eab990c3ab4a1dac96eecfa7189a4455b4a4e9d39b1813fa20e17b8cc564d2"
      },
      "recordedDate": "2024-02-16",
      "evidence": [ {
        "detail": [ {
          "reference": "List/5c111f15d52594a1e3e176265fcb23a0fbcd7b893300a7afa3fbf4780f4f23cc"
        } ]
      } ]
    },
    "request": {
      "method": "PUT",
      "url": "Condition/c3a22e56e7713786dbec08325f6c9273d20f584f29e92ce20ff0983fc5cee9af"
    }
  }, {
    "fullUrl": "Procedure/20e22fcd38d26f04e68c47a89593d87bd215142f6188e41d490c3d7d8ec6c3cc",
    "resource": {
      "resourceType": "Procedure",
      "id": "20e22fcd38d26f04e68c47a89593d87bd215142f6188e41d490c3d7d8ec6c3cc",
      "meta": {
        "profile": [ "https://www.medizininformatik-initiative.de/fhir/ext/modul-onko/StructureDefinition/mii-pr-onko-systemische-therapie" ]
      },
      "extension": [ {
        "url": "https://www.medizininformatik-initiative.de/fhir/ext/modul-onko/StructureDefinition/mii-ex-onko-systemische-therapie-intention",
        "valueCodeableConcept": {
          "coding": [ {
            "system": "https://www.medizininformatik-initiative.de/fhir/ext/modul-onko/CodeSystem/mii-cs-onko-intention",
            "code": "K"
          } ]
        }
      }, {
        "url": "https://www.medizininformatik-initiative.de/fhir/ext/modul-onko/StructureDefinition/mii-ex-onko-systemische-therapie-stellungzurop",
        "valueCodeableConcept": {
          "coding": [ {
            "system": "https://www.medizininformatik-initiative.de/fhir/ext/modul-onko/CodeSystem/mii-cs-onko-therapie-stellungzurop",
            "code": "O"
          } ]
        }
      } ],
      "identifier": [ {
        "system": "https://bzkf.github.io/obds-to-fhir/identifiers/systemische-therapie-procedure-id",
        "value": "993_syst1"
      } ],
      "status": "in-progress",
      "category": {
        "coding": [ {
          "system": "http://snomed.info/sct",
          "version": "http://snomed.info/sct/900000000000207008/version/20250501",
          "code": "18629005",
          "display": "Administration of drug or medicament (procedure)"
        } ]
      },
      "code": {
        "coding": [ {
          "system": "http://fhir.de/CodeSystem/bfarm/ops",
          "version": "2025",
          "code": "8-54",
          "display": "Zytostatische Chemotherapie, Immuntherapie und antiretrovirale Therapie"
        }, {
          "system": "https://www.medizininformatik-initiative.de/fhir/ext/modul-onko/CodeSystem/mii-cs-onko-therapie-typ",
          "code": "CI"
        } ]
      },
      "subject": {
        "reference": "Patient/66eab990c3ab4a1dac96eecfa7189a4455b4a4e9d39b1813fa20e17b8cc564d2"
      },
      "performedPeriod": {
        "start": "2020-09-01"
      },
      "reasonReference": [ {
        "reference": "Condition/c3a22e56e7713786dbec08325f6c9273d20f584f29e92ce20ff0983fc5cee9af"
      } ],
      "usedCode": [ {
        "text": "FCR"
      } ]
    },
    "request": {
      "method": "PUT",
      "url": "Procedure/20e22fcd38d26f04e68c47a89593d87bd215142f6188e41d490c3d7d8ec6c3cc"
    }
  }, {
    "fullUrl": "MedicationStatement/a5224bd97b92ed2cdc0ec0688b47d09b6d3c1317ebd984b0fd1fd090bf2cba4a",
    "resource": {
      "resourceType": "MedicationStatement",
      "id": "a5224bd97b92ed2cdc0ec0688b47d09b6d3c1317ebd984b0fd1fd090bf2cba4a",
      "meta": {
        "profile": [ "https://www.medizininformatik-initiative.de/fhir/ext/modul-onko/StructureDefinition/mii-pr-onko-systemische-therapie-medikation" ]
      },
      "identifier": [ {
        "system": "https://bzkf.github.io/obds-to-fhir/identifiers/systemische-therapie-medication-statement-id",
        "value": "c3a22e56e7713786dbec08325f6c9273d20f584f29e92ce20ff0983fc5cee9af-993_syst1-Cyclophosphamid"
      } ],
      "partOf": [ {
        "reference": "Procedure/20e22fcd38d26f04e68c47a89593d87bd215142f6188e41d490c3d7d8ec6c3cc"
      } ],
      "status": "active",
      "medicationCodeableConcept": {
        "coding": [ {
          "system": "http://fhir.de/CodeSystem/bfarm/atc",
          "code": "L01AA01"
        } ],
        "text": "Cyclophosphamid"
      },
      "subject": {
        "reference": "Patient/66eab990c3ab4a1dac96eecfa7189a4455b4a4e9d39b1813fa20e17b8cc564d2"
      },
      "effectivePeriod": {
        "start": "2020-09-01"
      },
      "reasonReference": [ {
        "reference": "Condition/c3a22e56e7713786dbec08325f6c9273d20f584f29e92ce20ff0983fc5cee9af"
      } ]
    },
    "request": {
      "method": "PUT",
      "url": "MedicationStatement/a5224bd97b92ed2cdc0ec0688b47d09b6d3c1317ebd984b0fd1fd090bf2cba4a"
    }
  }, {
    "fullUrl": "MedicationStatement/d0057082d8f7323ca3223b09665e0246d1e951379f1d278f2d560553f0a7eb37",
    "resource": {
      "resourceType": "MedicationStatement",
      "id": "d0057082d8f7323ca3223b09665e0246d1e951379f1d278f2d560553f0a7eb37",
      "meta": {
        "profile": [ "https://www.medizininformatik-initiative.de/fhir/ext/modul-onko/StructureDefinition/mii-pr-onko-systemische-therapie-medikation" ]
      },
      "identifier": [ {
        "system": "https://bzkf.github.io/obds-to-fhir/identifiers/systemische-therapie-medication-statement-id",
        "value": "c3a22e56e7713786dbec08325f6c9273d20f584f29e92ce20ff0983fc5cee9af-993_syst1-Rituximab"
      } ],
      "partOf": [ {
        "reference": "Procedure/20e22fcd38d26f04e68c47a89593d87bd215142f6188e41d490c3d7d8ec6c3cc"
      } ],
      "status": "active",
      "medicationCodeableConcept": {
        "coding": [ {
          "system": "http://fhir.de/CodeSystem/bfarm/atc",
          "code": "L01FA01"
        } ],
        "text": "Rituximab"
      },
      "subject": {
        "reference": "Patient/66eab990c3ab4a1dac96eecfa7189a4455b4a4e9d39b1813fa20e17b8cc564d2"
      },
      "effectivePeriod": {
        "start": "2020-09-01"
      },
      "reasonReference": [ {
        "reference": "Condition/c3a22e56e7713786dbec08325f6c9273d20f584f29e92ce20ff0983fc5cee9af"
      } ]
    },
    "request": {
      "method": "PUT",
      "url": "MedicationStatement/d0057082d8f7323ca3223b09665e0246d1e951379f1d278f2d560553f0a7eb37"
    }
  }, {
    "fullUrl": "MedicationStatement/b7af7d7d75d7f93c150f147ab8365821fd20894a703b505dee6c491b64f60ad3",
    "resource": {
      "resourceType": "MedicationStatement",
      "id": "b7af7d7d75d7f93c150f147ab8365821fd20894a703b505dee6c491b64f60ad3",
      "meta": {
        "profile": [ "https://www.medizininformatik-initiative.de/fhir/ext/modul-onko/StructureDefinition/mii-pr-onko-systemische-therapie-medikation" ]
      },
      "identifier": [ {
        "system": "https://bzkf.github.io/obds-to-fhir/identifiers/systemische-therapie-medication-statement-id",
        "value": "c3a22e56e7713786dbec08325f6c9273d20f584f29e92ce20ff0983fc5cee9af-993_syst1-Fludarabin"
      } ],
      "partOf": [ {
        "reference": "Procedure/20e22fcd38d26f04e68c47a89593d87bd215142f6188e41d490c3d7d8ec6c3cc"
      } ],
      "status": "active",
      "medicationCodeableConcept": {
        "coding": [ {
          "system": "http://fhir.de/CodeSystem/bfarm/atc",
          "code": "L01BB05"
        } ],
        "text": "Fludarabin"
      },
      "subject": {
        "reference": "Patient/66eab990c3ab4a1dac96eecfa7189a4455b4a4e9d39b1813fa20e17b8cc564d2"
      },
      "effectivePeriod": {
        "start": "2020-09-01"
      },
      "reasonReference": [ {
        "reference": "Condition/c3a22e56e7713786dbec08325f6c9273d20f584f29e92ce20ff0983fc5cee9af"
      } ]
    },
    "request": {
      "method": "PUT",
      "url": "MedicationStatement/b7af7d7d75d7f93c150f147ab8365821fd20894a703b505dee6c491b64f60ad3"
    }
  }, {
    "fullUrl": "Observation/791de91efd0db68e9d536e05b317b9c9c2416e3fd2e01bdb8e2a1dfc12979c9f",
    "resource": {
      "resourceType": "Observation",
      "id": "791de91efd0db68e9d536e05b317b9c9c2416e3fd2e01bdb8e2a1dfc12979c9f",
      "meta": {
        "profile": [ "https://www.medizininformatik-initiative.de/fhir/ext/modul-onko/StructureDefinition/mii-pr-onko-studienteilnahme" ]
      },
      "identifier": [ {
        "system": "https://bzkf.github.io/obds-to-fhir/identifiers/studienteilnahme-observation-id",
        "value": "30_Inner_2-Studienteilnahme"
      } ],
      "status": "final",
      "code": {
        "coding": [ {
          "system": "http://snomed.info/sct",
          "version": "http://snomed.info/sct/900000000000207008/version/20250501",
          "code": "709491003",
          "display": "Enrollment in clinical trial (procedure)"
        } ]
      },
      "subject": {
        "reference": "Patient/66eab990c3ab4a1dac96eecfa7189a4455b4a4e9d39b1813fa20e17b8cc564d2"
      },
      "focus": [ {
        "reference": "Condition/c3a22e56e7713786dbec08325f6c9273d20f584f29e92ce20ff0983fc5cee9af"
      } ],
      "valueCodeableConcept": {
        "coding": [ {
          "system": "https://www.medizininformatik-initiative.de/fhir/ext/modul-onko/CodeSystem/mii-cs-onko-studienteilnahme",
          "code": "N"
        } ]
      }
    },
    "request": {
      "method": "PUT",
      "url": "Observation/791de91efd0db68e9d536e05b317b9c9c2416e3fd2e01bdb8e2a1dfc12979c9f"
    }
  }, {
    "fullUrl": "AdverseEvent/a334edd7b6d4f98b2b26365a8095622600193894e04c034117d6d7310a4cb09d",
    "resource": {
      "resourceType": "AdverseEvent",
      "id": "a334edd7b6d4f98b2b26365a8095622600193894e04c034117d6d7310a4cb09d",
      "meta": {
        "profile": [ "https://www.medizininformatik-initiative.de/fhir/ext/modul-onko/StructureDefinition/mii-pr-onko-nebenwirkung-adverse-event" ]
      },
      "identifier": {
        "system": "https://bzkf.github.io/obds-to-fhir/identifiers/nebenwirkung-adverse-event-id",
        "value": "mii-pr-onko-nebenwirkung-993_syst1-0"
      },
      "actuality": "actual",
      "event": {
        "extension": [ {
          "url": "http://hl7.org/fhir/StructureDefinition/data-absent-reason",
          "valueCode": "unknown"
        } ],
        "text": "Übelkeit"
      },
      "subject": {
        "reference": "Patient/66eab990c3ab4a1dac96eecfa7189a4455b4a4e9d39b1813fa20e17b8cc564d2"
      },
      "seriousness": {
        "coding": [ {
          "system": "https://www.medizininformatik-initiative.de/fhir/ext/modul-onko/CodeSystem/mii-cs-onko-nebenwirkung-ctcae-grad",
          "code": "3"
        } ]
      },
      "suspectEntity": [ {
        "instance": {
          "reference": "Procedure/20e22fcd38d26f04e68c47a89593d87bd215142f6188e41d490c3d7d8ec6c3cc"
        }
      } ]
    },
    "request": {
      "method": "PUT",
      "url": "AdverseEvent/a334edd7b6d4f98b2b26365a8095622600193894e04c034117d6d7310a4cb09d"
    }
  }, {
    "fullUrl": "CarePlan/ad6a7cc21281b70cfaf484a8ced0b8361cb3f0c0f4510c4a51b5367e078b3011",
    "resource": {
      "resourceType": "CarePlan",
      "id": "ad6a7cc21281b70cfaf484a8ced0b8361cb3f0c0f4510c4a51b5367e078b3011",
      "meta": {
        "profile": [ "https://www.medizininformatik-initiative.de/fhir/ext/modul-onko/StructureDefinition/mii-pr-onko-tumorkonferenz" ]
      },
      "identifier": [ {
        "system": "https://bzkf.github.io/obds-to-fhir/identifiers/tumorkonferenz-care-plan-id",
        "value": "Tumorkonferenz-111"
      } ],
      "status": "active",
      "intent": "plan",
      "category": [ {
        "coding": [ {
          "system": "https://www.medizininformatik-initiative.de/fhir/ext/modul-onko/CodeSystem/mii-cs-onko-therapieplanung-typ",
          "code": "praeth"
        } ]
      } ],
      "subject": {
        "reference": "Patient/66eab990c3ab4a1dac96eecfa7189a4455b4a4e9d39b1813fa20e17b8cc564d2"
      },
      "created": "2020-08-17",
      "addresses": [ {
        "reference": "Condition/c3a22e56e7713786dbec08325f6c9273d20f584f29e92ce20ff0983fc5cee9af"
      } ]
    },
    "request": {
      "method": "PUT",
      "url": "CarePlan/ad6a7cc21281b70cfaf484a8ced0b8361cb3f0c0f4510c4a51b5367e078b3011"
    }
  }, {
    "fullUrl": "Procedure/468b48b84c08b2959fa1521508cb461ed2111042570286cc8183a6bd45576d3a",
    "resource": {
      "resourceType": "Procedure",
      "id": "468b48b84c08b2959fa1521508cb461ed2111042570286cc8183a6bd45576d3a",
      "meta": {
        "profile": [ "https://www.medizininformatik-initiative.de/fhir/ext/modul-onko/StructureDefinition/mii-pr-onko-systemische-therapie" ]
      },
      "extension": [ {
        "url": "https://www.medizininformatik-initiative.de/fhir/ext/modul-onko/StructureDefinition/mii-ex-onko-systemische-therapie-intention",
        "valueCodeableConcept": {
          "coding": [ {
            "system": "https://www.medizininformatik-initiative.de/fhir/ext/modul-onko/CodeSystem/mii-cs-onko-intention",
            "code": "S"
          } ]
        }
      }, {
        "url": "https://www.medizininformatik-initiative.de/fhir/ext/modul-onko/StructureDefinition/mii-ex-onko-systemische-therapie-stellungzurop",
        "valueCodeableConcept": {
          "coding": [ {
            "system": "https://www.medizininformatik-initiative.de/fhir/ext/modul-onko/CodeSystem/mii-cs-onko-therapie-stellungzurop",
            "code": "O"
          } ]
        }
      } ],
      "identifier": [ {
        "system": "https://bzkf.github.io/obds-to-fhir/identifiers/systemische-therapie-procedure-id",
        "value": "992_syst1"
      } ],
      "status": "completed",
      "code": {
        "coding": [ {
          "system": "http://snomed.info/sct",
          "version": "http://snomed.info/sct/900000000000207008/version/20250501",
          "code": "373818007",
          "display": "No anti-cancer treatment - watchful waiting (finding)"
        }, {
          "system": "https://www.medizininformatik-initiative.de/fhir/ext/modul-onko/CodeSystem/mii-cs-onko-therapie-typ",
          "code": "WW"
        } ]
      },
      "subject": {
        "reference": "Patient/66eab990c3ab4a1dac96eecfa7189a4455b4a4e9d39b1813fa20e17b8cc564d2"
      },
      "performedPeriod": {
        "start": "2015-07-15",
        "end": "2020-07-18"
      },
      "reasonReference": [ {
        "reference": "Condition/c3a22e56e7713786dbec08325f6c9273d20f584f29e92ce20ff0983fc5cee9af"
      } ],
      "outcome": {
        "coding": [ {
          "system": "https://www.medizininformatik-initiative.de/fhir/ext/modul-onko/CodeSystem/mii-cs-onko-therapie-ende-grund",
          "code": "P"
        } ]
      }
    },
    "request": {
      "method": "PUT",
      "url": "Procedure/468b48b84c08b2959fa1521508cb461ed2111042570286cc8183a6bd45576d3a"
    }
  }, {
    "fullUrl": "Observation/b0b7ea5cc1bcd90175369a22e7b1f3d1b4ee7e275eecc9ca77dc96a6ef03f593",
    "resource": {
      "resourceType": "Observation",
      "id": "b0b7ea5cc1bcd90175369a22e7b1f3d1b4ee7e275eecc9ca77dc96a6ef03f593",
      "meta": {
        "profile": [ "https://www.medizininformatik-initiative.de/fhir/ext/modul-onko/StructureDefinition/mii-pr-onko-studienteilnahme" ]
      },
      "identifier": [ {
        "system": "https://bzkf.github.io/obds-to-fhir/identifiers/studienteilnahme-observation-id",
        "value": "30_Inner_1-Studienteilnahme"
      } ],
      "status": "final",
      "code": {
        "coding": [ {
          "system": "http://snomed.info/sct",
          "version": "http://snomed.info/sct/900000000000207008/version/20250501",
          "code": "709491003",
          "display": "Enrollment in clinical trial (procedure)"
        } ]
      },
      "subject": {
        "reference": "Patient/66eab990c3ab4a1dac96eecfa7189a4455b4a4e9d39b1813fa20e17b8cc564d2"
      },
      "focus": [ {
        "reference": "Condition/c3a22e56e7713786dbec08325f6c9273d20f584f29e92ce20ff0983fc5cee9af"
      } ],
      "valueCodeableConcept": {
        "coding": [ {
          "system": "https://www.medizininformatik-initiative.de/fhir/ext/modul-onko/CodeSystem/mii-cs-onko-studienteilnahme",
          "code": "N"
        } ]
      }
    },
    "request": {
      "method": "PUT",
      "url": "Observation/b0b7ea5cc1bcd90175369a22e7b1f3d1b4ee7e275eecc9ca77dc96a6ef03f593"
    }
  }, {
    "fullUrl": "AdverseEvent/5a8f29a14a07843b5e5f4951018c74c60399654e350c890d0fccefd8886a6cf5",
    "resource": {
      "resourceType": "AdverseEvent",
      "id": "5a8f29a14a07843b5e5f4951018c74c60399654e350c890d0fccefd8886a6cf5",
      "meta": {
        "profile": [ "https://www.medizininformatik-initiative.de/fhir/ext/modul-onko/StructureDefinition/mii-pr-onko-nebenwirkung-adverse-event" ]
      },
      "identifier": {
        "system": "https://bzkf.github.io/obds-to-fhir/identifiers/nebenwirkung-adverse-event-id",
        "value": "mii-pr-onko-nebenwirkung-992_syst1-Grad-maximal-2-unbekannt"
      },
      "actuality": "actual",
      "event": {
        "extension": [ {
          "url": "http://hl7.org/fhir/StructureDefinition/data-absent-reason",
          "valueCode": "not-applicable"
        } ]
      },
      "subject": {
        "reference": "Patient/66eab990c3ab4a1dac96eecfa7189a4455b4a4e9d39b1813fa20e17b8cc564d2"
      },
      "seriousness": {
        "coding": [ {
          "system": "https://www.medizininformatik-initiative.de/fhir/ext/modul-onko/CodeSystem/mii-cs-onko-nebenwirkung-ctcae-grad",
          "code": "U"
        } ]
      },
      "suspectEntity": [ {
        "instance": {
          "reference": "Procedure/468b48b84c08b2959fa1521508cb461ed2111042570286cc8183a6bd45576d3a"
        }
      } ]
    },
    "request": {
      "method": "PUT",
      "url": "AdverseEvent/5a8f29a14a07843b5e5f4951018c74c60399654e350c890d0fccefd8886a6cf5"
    }
  }, {
    "fullUrl": "Observation/3da47feeb644dafecc0f18e8e06c1a9c4c36503fc6426f6f751616546320e4f5",
    "resource": {
      "resourceType": "Observation",
      "id": "3da47feeb644dafecc0f18e8e06c1a9c4c36503fc6426f6f751616546320e4f5",
      "meta": {
        "profile": [ "https://www.medizininformatik-initiative.de/fhir/ext/modul-onko/StructureDefinition/mii-pr-onko-verlauf" ]
      },
      "identifier": [ {
        "system": "https://bzkf.github.io/obds-to-fhir/identifiers/verlauf-observation-id",
        "value": "158"
      } ],
      "status": "final",
      "code": {
        "coding": [ {
          "system": "http://snomed.info/sct",
          "version": "http://snomed.info/sct/900000000000207008/version/20250501",
          "code": "396432002",
          "display": "Status of regression of tumor (observable entity)"
        } ]
      },
      "subject": {
        "reference": "Patient/66eab990c3ab4a1dac96eecfa7189a4455b4a4e9d39b1813fa20e17b8cc564d2"
      },
      "focus": [ {
        "reference": "Condition/c3a22e56e7713786dbec08325f6c9273d20f584f29e92ce20ff0983fc5cee9af"
      } ],
      "effectiveDateTime": "2020-07-18",
      "valueCodeableConcept": {
        "coding": [ {
          "system": "https://www.medizininformatik-initiative.de/fhir/ext/modul-onko/CodeSystem/mii-cs-onko-verlauf-gesamtbeurteilung",
          "code": "P",
          "display": "Progression"
        } ]
      }
    },
    "request": {
      "method": "PUT",
      "url": "Observation/3da47feeb644dafecc0f18e8e06c1a9c4c36503fc6426f6f751616546320e4f5"
    }
  }, {
    "fullUrl": "Observation/cc4dd4a4b721a37b7fe09749609bfc409f12816af087e11a9ef12ac37c18aa8f",
    "resource": {
      "resourceType": "Observation",
      "id": "cc4dd4a4b721a37b7fe09749609bfc409f12816af087e11a9ef12ac37c18aa8f",
      "meta": {
        "profile": [ "https://www.medizininformatik-initiative.de/fhir/ext/modul-onko/StructureDefinition/mii-pr-onko-allgemeiner-leistungszustand-ecog" ]
      },
      "identifier": [ {
        "system": "https://bzkf.github.io/obds-to-fhir/identifiers/allgemeiner-leistungszustand-ecog-id",
        "value": "ECOG-30_Verlauf_1"
      } ],
      "status": "final",
      "code": {
        "coding": [ {
          "system": "http://snomed.info/sct",
          "version": "http://snomed.info/sct/900000000000207008/version/20250501",
          "code": "423740007",
          "display": "Eastern Cooperative Oncology Group performance status (observable entity)"
        }, {
          "system": "http://loinc.org",
          "version": "2.80",
          "code": "89262-0",
          "display": "ECOG Performance Status [Interpretation]"
        } ]
      },
      "subject": {
        "reference": "Patient/66eab990c3ab4a1dac96eecfa7189a4455b4a4e9d39b1813fa20e17b8cc564d2"
      },
      "focus": [ {
        "reference": "Condition/c3a22e56e7713786dbec08325f6c9273d20f584f29e92ce20ff0983fc5cee9af"
      } ],
      "effectiveDateTime": "2020-07-18",
      "valueCodeableConcept": {
        "coding": [ {
          "system": "https://www.medizininformatik-initiative.de/fhir/ext/modul-onko/CodeSystem/mii-cs-onko-allgemeiner-leistungszustand-ecog",
          "code": "0",
          "display": "Normale, uneingeschränkte Aktivität wie vor der Erkrankung (90 - 100 % nach Karnofsky)"
        }, {
          "system": "http://loinc.org",
          "version": "2.80",
          "code": "LA9622-7",
          "display": "Fully active, able to carry on all pre-disease performance without restriction"
        } ]
      }
    },
    "request": {
      "method": "PUT",
      "url": "Observation/cc4dd4a4b721a37b7fe09749609bfc409f12816af087e11a9ef12ac37c18aa8f"
    }
  }, {
    "fullUrl": "Observation/9d77c2e961a3669dee9db1621a581a10b255b45f6249531b47c10d485dcce6af",
    "resource": {
      "resourceType": "Observation",
      "id": "9d77c2e961a3669dee9db1621a581a10b255b45f6249531b47c10d485dcce6af",
      "meta": {
        "profile": [ "https://www.medizininformatik-initiative.de/fhir/ext/modul-onko/StructureDefinition/mii-pr-onko-studienteilnahme" ]
      },
      "identifier": [ {
        "system": "https://bzkf.github.io/obds-to-fhir/identifiers/studienteilnahme-observation-id",
        "value": "30_Verlauf_1-Studienteilnahme"
      } ],
      "status": "final",
      "code": {
        "coding": [ {
          "system": "http://snomed.info/sct",
          "version": "http://snomed.info/sct/900000000000207008/version/20250501",
          "code": "709491003",
          "display": "Enrollment in clinical trial (procedure)"
        } ]
      },
      "subject": {
        "reference": "Patient/66eab990c3ab4a1dac96eecfa7189a4455b4a4e9d39b1813fa20e17b8cc564d2"
      },
      "focus": [ {
        "reference": "Condition/c3a22e56e7713786dbec08325f6c9273d20f584f29e92ce20ff0983fc5cee9af"
      } ],
      "valueCodeableConcept": {
        "coding": [ {
          "system": "https://www.medizininformatik-initiative.de/fhir/ext/modul-onko/CodeSystem/mii-cs-onko-studienteilnahme",
          "code": "N"
        } ]
      }
    },
    "request": {
      "method": "PUT",
      "url": "Observation/9d77c2e961a3669dee9db1621a581a10b255b45f6249531b47c10d485dcce6af"
    }
  }, {
    "fullUrl": "Observation/139e56223545fedbb4911f0ddddf852d9fd3459bfc9132989724318b5cbc9f7a",
    "resource": {
      "resourceType": "Observation",
      "id": "139e56223545fedbb4911f0ddddf852d9fd3459bfc9132989724318b5cbc9f7a",
      "meta": {
        "profile": [ "https://www.medizininformatik-initiative.de/fhir/ext/modul-onko/StructureDefinition/mii-pr-onko-allgemeiner-leistungszustand-ecog" ]
      },
      "identifier": [ {
        "system": "https://bzkf.github.io/obds-to-fhir/identifiers/allgemeiner-leistungszustand-ecog-id",
        "value": "ECOG-30_DIA_CLL_01"
      } ],
      "status": "final",
      "code": {
        "coding": [ {
          "system": "http://snomed.info/sct",
          "version": "http://snomed.info/sct/900000000000207008/version/20250501",
          "code": "423740007",
          "display": "Eastern Cooperative Oncology Group performance status (observable entity)"
        }, {
          "system": "http://loinc.org",
          "version": "2.80",
          "code": "89262-0",
          "display": "ECOG Performance Status [Interpretation]"
        } ]
      },
      "subject": {
        "reference": "Patient/66eab990c3ab4a1dac96eecfa7189a4455b4a4e9d39b1813fa20e17b8cc564d2"
      },
      "focus": [ {
        "reference": "Condition/c3a22e56e7713786dbec08325f6c9273d20f584f29e92ce20ff0983fc5cee9af"
      } ],
      "effectiveDateTime": "2015-04-03",
      "valueCodeableConcept": {
        "coding": [ {
          "system": "https://www.medizininformatik-initiative.de/fhir/ext/modul-onko/CodeSystem/mii-cs-onko-allgemeiner-leistungszustand-ecog",
          "code": "0",
          "display": "Normale, uneingeschränkte Aktivität wie vor der Erkrankung (90 - 100 % nach Karnofsky)"
        }, {
          "system": "http://loinc.org",
          "version": "2.80",
          "code": "LA9622-7",
          "display": "Fully active, able to carry on all pre-disease performance without restriction"
        } ]
      }
    },
    "request": {
      "method": "PUT",
      "url": "Observation/139e56223545fedbb4911f0ddddf852d9fd3459bfc9132989724318b5cbc9f7a"
    }
  }, {
    "fullUrl": "Specimen/adcebdd2653c4e6200fdeac8900a0cb5bc17d5ea40a21d6f391b150656fbb4c6",
    "resource": {
      "resourceType": "Specimen",
      "id": "adcebdd2653c4e6200fdeac8900a0cb5bc17d5ea40a21d6f391b150656fbb4c6",
      "meta": {
        "profile": [ "https://www.medizininformatik-initiative.de/fhir/ext/modul-onko/StructureDefinition/mii-pr-onko-specimen" ]
      },
      "identifier": [ {
        "system": "https://bzkf.github.io/obds-to-fhir/identifiers/histologie-specimen-id",
        "value": "273"
      } ],
      "accessionIdentifier": {
        "value": "H1234/2015"
      },
      "subject": {
        "reference": "Patient/66eab990c3ab4a1dac96eecfa7189a4455b4a4e9d39b1813fa20e17b8cc564d2"
      },
      "collection": {
        "collectedDateTime": "2015-04-03"
      }
    },
    "request": {
      "method": "PUT",
      "url": "Specimen/adcebdd2653c4e6200fdeac8900a0cb5bc17d5ea40a21d6f391b150656fbb4c6"
    }
  }, {
    "fullUrl": "Observation/7f1dfbb42c61b66028d7df0ea50ad1f9e863e9e6d2b98d70528fdbf77cb9bc55",
    "resource": {
      "resourceType": "Observation",
      "id": "7f1dfbb42c61b66028d7df0ea50ad1f9e863e9e6d2b98d70528fdbf77cb9bc55",
      "meta": {
        "profile": [ "https://www.medizininformatik-initiative.de/fhir/ext/modul-onko/StructureDefinition/mii-pr-onko-grading" ]
      },
      "identifier": [ {
        "system": "https://bzkf.github.io/obds-to-fhir/identifiers/grading-observation-id",
        "value": "273-grading"
      } ],
      "status": "final",
      "category": [ {
        "coding": [ {
          "system": "http://terminology.hl7.org/CodeSystem/observation-category",
          "code": "laboratory"
        } ]
      } ],
      "code": {
        "coding": [ {
          "system": "http://loinc.org",
          "version": "2.80",
          "code": "33732-9",
          "display": "Histology grade [Identifier] in Cancer specimen"
        }, {
          "system": "http://snomed.info/sct",
          "version": "http://snomed.info/sct/900000000000207008/version/20250501",
          "code": "371469007",
          "display": "Histologic grade of neoplasm (observable entity)"
        } ]
      },
      "subject": {
        "reference": "Patient/66eab990c3ab4a1dac96eecfa7189a4455b4a4e9d39b1813fa20e17b8cc564d2"
      },
      "focus": [ {
        "reference": "Condition/c3a22e56e7713786dbec08325f6c9273d20f584f29e92ce20ff0983fc5cee9af"
      } ],
      "effectiveDateTime": "2015-04-03",
      "valueCodeableConcept": {
        "coding": [ {
          "system": "https://www.medizininformatik-initiative.de/fhir/ext/modul-onko/CodeSystem/mii-cs-onko-grading",
          "code": "T"
        } ]
      },
      "specimen": {
        "reference": "Specimen/adcebdd2653c4e6200fdeac8900a0cb5bc17d5ea40a21d6f391b150656fbb4c6"
      }
    },
    "request": {
      "method": "PUT",
      "url": "Observation/7f1dfbb42c61b66028d7df0ea50ad1f9e863e9e6d2b98d70528fdbf77cb9bc55"
    }
  }, {
    "fullUrl": "Observation/fcb7db69860aa79902a7d688a96da51329a4744a7e3621162277c9ac1feecd12",
    "resource": {
      "resourceType": "Observation",
      "id": "fcb7db69860aa79902a7d688a96da51329a4744a7e3621162277c9ac1feecd12",
      "meta": {
        "profile": [ "https://www.medizininformatik-initiative.de/fhir/ext/modul-onko/StructureDefinition/mii-pr-onko-studienteilnahme" ]
      },
      "identifier": [ {
        "system": "https://bzkf.github.io/obds-to-fhir/identifiers/studienteilnahme-observation-id",
        "value": "30_DIA_CLL_01-Studienteilnahme"
      } ],
      "status": "final",
      "code": {
        "coding": [ {
          "system": "http://snomed.info/sct",
          "version": "http://snomed.info/sct/900000000000207008/version/20250501",
          "code": "709491003",
          "display": "Enrollment in clinical trial (procedure)"
        } ]
      },
      "subject": {
        "reference": "Patient/66eab990c3ab4a1dac96eecfa7189a4455b4a4e9d39b1813fa20e17b8cc564d2"
      },
      "focus": [ {
        "reference": "Condition/c3a22e56e7713786dbec08325f6c9273d20f584f29e92ce20ff0983fc5cee9af"
      } ],
      "valueCodeableConcept": {
        "coding": [ {
          "system": "https://www.medizininformatik-initiative.de/fhir/ext/modul-onko/CodeSystem/mii-cs-onko-studienteilnahme",
          "code": "N"
        } ]
      }
    },
    "request": {
      "method": "PUT",
      "url": "Observation/fcb7db69860aa79902a7d688a96da51329a4744a7e3621162277c9ac1feecd12"
    }
  }, {
    "fullUrl": "Observation/93248842d266c77b75d2ece014134690edc9be2a19081662367ba98532638a1c",
    "resource": {
      "resourceType": "Observation",
      "id": "93248842d266c77b75d2ece014134690edc9be2a19081662367ba98532638a1c",
      "meta": {
        "profile": [ "https://www.medizininformatik-initiative.de/fhir/ext/modul-onko/StructureDefinition/mii-pr-onko-weitere-klassifikationen" ]
      },
      "identifier": [ {
        "system": "https://bzkf.github.io/obds-to-fhir/identifiers/weitere-klassifikation-observation-id",
        "value": "30_DIA_CLL_01-Binet-2018-04-03"
      } ],
      "status": "final",
      "code": {
        "text": "Binet"
      },
      "subject": {
        "reference": "Patient/66eab990c3ab4a1dac96eecfa7189a4455b4a4e9d39b1813fa20e17b8cc564d2"
      },
      "focus": [ {
        "reference": "Condition/c3a22e56e7713786dbec08325f6c9273d20f584f29e92ce20ff0983fc5cee9af"
      } ],
      "effectiveDateTime": "2018-04-03",
      "valueCodeableConcept": {
        "coding": [ {
          "code": "A"
        } ]
      }
    },
    "request": {
      "method": "PUT",
      "url": "Observation/93248842d266c77b75d2ece014134690edc9be2a19081662367ba98532638a1c"
    }
  }, {
    "fullUrl": "List/5c111f15d52594a1e3e176265fcb23a0fbcd7b893300a7afa3fbf4780f4f23cc",
    "resource": {
      "resourceType": "List",
      "id": "5c111f15d52594a1e3e176265fcb23a0fbcd7b893300a7afa3fbf4780f4f23cc",
      "meta": {
        "profile": [ "https://www.medizininformatik-initiative.de/fhir/ext/modul-onko/StructureDefinition/mii-pr-onko-liste-evidenz-erstdiagnose" ]
      },
      "identifier": [ {
        "system": "https://bzkf.github.io/obds-to-fhir/identifiers/erstdiagnose-evidenz-list-id",
        "value": "30-301"
      } ],
      "status": "current",
      "mode": "snapshot",
      "title": "Liste der Evidenz zum Erstdiagnosezeitpunkt",
      "subject": {
        "reference": "Patient/66eab990c3ab4a1dac96eecfa7189a4455b4a4e9d39b1813fa20e17b8cc564d2"
      },
      "entry": [ {
        "item": {
          "reference": "Observation/139e56223545fedbb4911f0ddddf852d9fd3459bfc9132989724318b5cbc9f7a"
        }
      }, {
        "item": {
          "reference": "Observation/7f1dfbb42c61b66028d7df0ea50ad1f9e863e9e6d2b98d70528fdbf77cb9bc55"
        }
      }, {
        "item": {
          "reference": "Observation/fcb7db69860aa79902a7d688a96da51329a4744a7e3621162277c9ac1feecd12"
        }
      }, {
        "item": {
          "reference": "Observation/93248842d266c77b75d2ece014134690edc9be2a19081662367ba98532638a1c"
        }
      } ]
    },
    "request": {
      "method": "PUT",
      "url": "List/5c111f15d52594a1e3e176265fcb23a0fbcd7b893300a7afa3fbf4780f4f23cc"
    }
  } ]
}
