{
  "resourceType": "Bundle",
  "id": "6f5a4631aa1afa9fb3b290f6bb86163ea01f9b24bd1170e5d79a0c36995c2c57",
  "type": "transaction",
  "entry": [ {
    "fullUrl": "Patient/6f5a4631aa1afa9fb3b290f6bb86163ea01f9b24bd1170e5d79a0c36995c2c57",
    "resource": {
      "resourceType": "Patient",
      "id": "6f5a4631aa1afa9fb3b290f6bb86163ea01f9b24bd1170e5d79a0c36995c2c57",
      "meta": {
        "profile": [ "https://www.medizininformatik-initiative.de/fhir/core/modul-person/StructureDefinition/PatientPseudonymisiert" ]
      },
      "identifier": [ {
        "type": {
          "coding": [ {
            "system": "http://terminology.hl7.org/CodeSystem/v2-0203",
            "code": "MR",
            "display": "Medical record number"
          }, {
            "system": "http://terminology.hl7.org/CodeSystem/v3-ObservationValue",
            "code": "PSEUDED",
            "display": "pseudonymized"
          } ]
        },
        "system": "https://bzkf.github.io/obds-to-fhir/identifiers/patient-id",
        "value": "12"
      } ],
      "gender": "female",
      "birthDate": "1953-07-21",
      "address": [ {
        "type": "both",
        "postalCode": "00000",
        "country": "DE"
      } ]
    },
    "request": {
      "method": "PUT",
      "url": "Patient/6f5a4631aa1afa9fb3b290f6bb86163ea01f9b24bd1170e5d79a0c36995c2c57"
    }
  }, {
    "fullUrl": "Condition/c4396ca95fdae137b54465873fe2ccc7e7e2f5bb6b0c3edc3cc9bb59581f531c",
    "resource": {
      "resourceType": "Condition",
      "id": "c4396ca95fdae137b54465873fe2ccc7e7e2f5bb6b0c3edc3cc9bb59581f531c",
      "meta": {
        "profile": [ "https://www.medizininformatik-initiative.de/fhir/ext/modul-onko/StructureDefinition/mii-pr-onko-diagnose-primaertumor" ]
      },
      "extension": [ {
        "url": "https://www.medizininformatik-initiative.de/fhir/ext/modul-onko/StructureDefinition/mii-ex-onko-histology-morphology-behavior-icdo3",
        "valueCodeableConcept": {
          "coding": [ {
            "system": "http://terminology.hl7.org/CodeSystem/icd-o-3",
            "version": "32",
            "code": "8461/3"
          } ],
          "text": "Seröses papilläres Oberflächenkarzinom"
        }
      }, {
        "url": "http://hl7.org/fhir/StructureDefinition/condition-assertedDate",
        "valueDateTime": "2017-07-02"
      } ],
      "identifier": [ {
        "system": "https://bzkf.github.io/obds-to-fhir/identifiers/primaerdiagnose-condition-id",
        "value": "12-121"
      } ],
      "verificationStatus": {
        "coding": [ {
          "system": "http://terminology.hl7.org/CodeSystem/condition-ver-status",
          "code": "confirmed"
        }, {
          "system": "https://www.medizininformatik-initiative.de/fhir/ext/modul-onko/CodeSystem/mii-cs-onko-primaertumor-diagnosesicherung",
          "code": "7"
        } ]
      },
      "code": {
        "coding": [ {
          "system": "http://fhir.de/CodeSystem/bfarm/icd-10-gm",
          "version": "2017",
          "code": "C56"
        } ]
      },
      "bodySite": [ {
        "coding": [ {
          "system": "http://terminology.hl7.org/CodeSystem/icd-o-3",
          "version": "32",
          "code": "C56.9"
        } ],
        "text": "Ovar"
      }, {
        "coding": [ {
          "system": "https://www.medizininformatik-initiative.de/fhir/ext/modul-onko/CodeSystem/mii-cs-onko-seitenlokalisation",
          "code": "T"
        }, {
          "system": "http://snomed.info/sct",
          "version": "http://snomed.info/sct/900000000000207008/version/20250501",
          "code": "385432009",
          "display": "Not applicable (qualifier value)"
        } ]
      } ],
      "subject": {
        "reference": "Patient/6f5a4631aa1afa9fb3b290f6bb86163ea01f9b24bd1170e5d79a0c36995c2c57"
      },
      "recordedDate": "2024-02-16",
      "evidence": [ {
        "detail": [ {
          "reference": "List/9714da8552e255236b553dde05d76217d62eb887d34b4dab24bbec3a169811f9"
        } ]
      } ]
    },
    "request": {
      "method": "PUT",
      "url": "Condition/c4396ca95fdae137b54465873fe2ccc7e7e2f5bb6b0c3edc3cc9bb59581f531c"
    }
  }, {
    "fullUrl": "Procedure/58e847089055423647e5d5516afb31726e684e0c3f9db8b2e4811deb6c8d1fb8",
    "resource": {
      "resourceType": "Procedure",
      "id": "58e847089055423647e5d5516afb31726e684e0c3f9db8b2e4811deb6c8d1fb8",
      "meta": {
        "profile": [ "https://www.medizininformatik-initiative.de/fhir/ext/modul-onko/StructureDefinition/mii-pr-onko-systemische-therapie" ]
      },
      "extension": [ {
        "url": "https://www.medizininformatik-initiative.de/fhir/ext/modul-onko/StructureDefinition/mii-ex-onko-systemische-therapie-intention",
        "valueCodeableConcept": {
          "coding": [ {
            "system": "https://www.medizininformatik-initiative.de/fhir/ext/modul-onko/CodeSystem/mii-cs-onko-intention",
            "code": "P"
          } ]
        }
      }, {
        "url": "https://www.medizininformatik-initiative.de/fhir/ext/modul-onko/StructureDefinition/mii-ex-onko-systemische-therapie-stellungzurop",
        "valueCodeableConcept": {
          "coding": [ {
            "system": "https://www.medizininformatik-initiative.de/fhir/ext/modul-onko/CodeSystem/mii-cs-onko-therapie-stellungzurop",
            "code": "O"
          } ]
        }
      } ],
      "identifier": [ {
        "system": "https://bzkf.github.io/obds-to-fhir/identifiers/systemische-therapie-procedure-id",
        "value": "12_1_Innere-1"
      } ],
      "status": "in-progress",
      "category": {
        "coding": [ {
          "system": "http://snomed.info/sct",
          "version": "http://snomed.info/sct/900000000000207008/version/20250501",
          "code": "18629005",
          "display": "Administration of drug or medicament (procedure)"
        } ]
      },
      "code": {
        "coding": [ {
          "system": "http://fhir.de/CodeSystem/bfarm/ops",
          "version": "2025",
          "code": "8-54",
          "display": "Zytostatische Chemotherapie, Immuntherapie und antiretrovirale Therapie"
        }, {
          "system": "https://www.medizininformatik-initiative.de/fhir/ext/modul-onko/CodeSystem/mii-cs-onko-therapie-typ",
          "code": "CH"
        } ]
      },
      "subject": {
        "reference": "Patient/6f5a4631aa1afa9fb3b290f6bb86163ea01f9b24bd1170e5d79a0c36995c2c57"
      },
      "performedPeriod": {
        "start": "2018-03-17"
      },
      "reasonReference": [ {
        "reference": "Condition/c4396ca95fdae137b54465873fe2ccc7e7e2f5bb6b0c3edc3cc9bb59581f531c"
      } ]
    },
    "request": {
      "method": "PUT",
      "url": "Procedure/58e847089055423647e5d5516afb31726e684e0c3f9db8b2e4811deb6c8d1fb8"
    }
  }, {
    "fullUrl": "MedicationStatement/8a0d0d8495f998ee494421b53f30b750f124b0a968aff0e75d7cb37f0f2b5418",
    "resource": {
      "resourceType": "MedicationStatement",
      "id": "8a0d0d8495f998ee494421b53f30b750f124b0a968aff0e75d7cb37f0f2b5418",
      "meta": {
        "profile": [ "https://www.medizininformatik-initiative.de/fhir/ext/modul-onko/StructureDefinition/mii-pr-onko-systemische-therapie-medikation" ]
      },
      "identifier": [ {
        "system": "https://bzkf.github.io/obds-to-fhir/identifiers/systemische-therapie-medication-statement-id",
        "value": "c4396ca95fdae137b54465873fe2ccc7e7e2f5bb6b0c3edc3cc9bb59581f531c-12_1_Innere-1-Paclitaxel"
      } ],
      "partOf": [ {
        "reference": "Procedure/58e847089055423647e5d5516afb31726e684e0c3f9db8b2e4811deb6c8d1fb8"
      } ],
      "status": "active",
      "medicationCodeableConcept": {
        "coding": [ {
          "system": "http://fhir.de/CodeSystem/bfarm/atc",
          "code": "L01CD01"
        } ],
        "text": "Paclitaxel"
      },
      "subject": {
        "reference": "Patient/6f5a4631aa1afa9fb3b290f6bb86163ea01f9b24bd1170e5d79a0c36995c2c57"
      },
      "effectivePeriod": {
        "start": "2018-03-17"
      },
      "reasonReference": [ {
        "reference": "Condition/c4396ca95fdae137b54465873fe2ccc7e7e2f5bb6b0c3edc3cc9bb59581f531c"
      } ]
    },
    "request": {
      "method": "PUT",
      "url": "MedicationStatement/8a0d0d8495f998ee494421b53f30b750f124b0a968aff0e75d7cb37f0f2b5418"
    }
  }, {
    "fullUrl": "AdverseEvent/dcf43497f15af4ec80e4798274aeb099c4420e1cb58e45021428ac4ef3dedccb",
    "resource": {
      "resourceType": "AdverseEvent",
      "id": "dcf43497f15af4ec80e4798274aeb099c4420e1cb58e45021428ac4ef3dedccb",
      "meta": {
        "profile": [ "https://www.medizininformatik-initiative.de/fhir/ext/modul-onko/StructureDefinition/mii-pr-onko-nebenwirkung-adverse-event" ]
      },
      "identifier": {
        "system": "https://bzkf.github.io/obds-to-fhir/identifiers/nebenwirkung-adverse-event-id",
        "value": "mii-pr-onko-nebenwirkung-12_1_Innere-1-Grad-maximal-2-unbekannt"
      },
      "actuality": "actual",
      "event": {
        "extension": [ {
          "url": "http://hl7.org/fhir/StructureDefinition/data-absent-reason",
          "valueCode": "not-applicable"
        } ]
      },
      "subject": {
        "reference": "Patient/6f5a4631aa1afa9fb3b290f6bb86163ea01f9b24bd1170e5d79a0c36995c2c57"
      },
      "seriousness": {
        "coding": [ {
          "system": "https://www.medizininformatik-initiative.de/fhir/ext/modul-onko/CodeSystem/mii-cs-onko-nebenwirkung-ctcae-grad",
          "code": "U"
        } ]
      },
      "suspectEntity": [ {
        "instance": {
          "reference": "Procedure/58e847089055423647e5d5516afb31726e684e0c3f9db8b2e4811deb6c8d1fb8"
        }
      } ]
    },
    "request": {
      "method": "PUT",
      "url": "AdverseEvent/dcf43497f15af4ec80e4798274aeb099c4420e1cb58e45021428ac4ef3dedccb"
    }
  }, {
    "fullUrl": "Procedure/ab777506937182733cc0aadcdf36234724a006177ba65acdb13258af95b5638b",
    "resource": {
      "resourceType": "Procedure",
      "id": "ab777506937182733cc0aadcdf36234724a006177ba65acdb13258af95b5638b",
      "meta": {
        "profile": [ "https://www.medizininformatik-initiative.de/fhir/ext/modul-onko/StructureDefinition/mii-pr-onko-strahlentherapie" ]
      },
      "extension": [ {
        "url": "https://www.medizininformatik-initiative.de/fhir/ext/modul-onko/StructureDefinition/mii-ex-onko-strahlentherapie-intention",
        "valueCodeableConcept": {
          "coding": [ {
            "system": "https://www.medizininformatik-initiative.de/fhir/ext/modul-onko/CodeSystem/mii-cs-onko-intention",
            "code": "P"
          } ]
        }
      }, {
        "url": "https://www.medizininformatik-initiative.de/fhir/ext/modul-onko/StructureDefinition/mii-ex-onko-strahlentherapie-stellungzurop",
        "valueCodeableConcept": {
          "coding": [ {
            "system": "https://www.medizininformatik-initiative.de/fhir/ext/modul-onko/CodeSystem/mii-cs-onko-therapie-stellungzurop",
            "code": "O"
          } ]
        }
      } ],
      "identifier": [ {
        "system": "https://bzkf.github.io/obds-to-fhir/identifiers/strahlentherapie-procedure-id",
        "value": "12_1_Strahlen-1"
      } ],
      "status": "in-progress",
      "category": {
        "coding": [ {
          "system": "http://snomed.info/sct",
          "version": "http://snomed.info/sct/900000000000207008/version/20250501",
          "code": "1287742003",
          "display": "Radiotherapy (procedure)"
        } ]
      },
      "code": {
        "coding": [ {
          "system": "http://fhir.de/CodeSystem/bfarm/ops",
          "version": "2025",
          "code": "8-52",
          "display": "Strahlentherapie"
        } ]
      },
      "subject": {
        "reference": "Patient/6f5a4631aa1afa9fb3b290f6bb86163ea01f9b24bd1170e5d79a0c36995c2c57"
      },
      "performedPeriod": {
        "start": "2018-06-06"
      },
      "reasonReference": [ {
        "reference": "Condition/c4396ca95fdae137b54465873fe2ccc7e7e2f5bb6b0c3edc3cc9bb59581f531c"
      } ]
    },
    "request": {
      "method": "PUT",
      "url": "Procedure/ab777506937182733cc0aadcdf36234724a006177ba65acdb13258af95b5638b"
    }
  }, {
    "fullUrl": "Procedure/be702f3694be4fb15373b7ddee19a10aa7515009c8795b3aef73229633e5a0de",
    "resource": {
      "resourceType": "Procedure",
      "id": "be702f3694be4fb15373b7ddee19a10aa7515009c8795b3aef73229633e5a0de",
      "meta": {
        "profile": [ "https://www.medizininformatik-initiative.de/fhir/ext/modul-onko/StructureDefinition/mii-pr-onko-strahlentherapie-bestrahlung-strahlentherapie" ]
      },
      "extension": [ {
        "url": "http://hl7.org/fhir/StructureDefinition/procedure-method",
        "valueCodeableConcept": {
          "coding": [ {
            "system": "https://www.medizininformatik-initiative.de/fhir/ext/modul-onko/CodeSystem/mii-cs-onko-strahlentherapie-applikationsart",
            "code": "PRCN-ST4D"
          } ]
        }
      }, {
        "url": "https://www.medizininformatik-initiative.de/fhir/ext/modul-onko/StructureDefinition/mii-ex-onko-strahlentherapie-bestrahlung-einzeldosis",
        "valueQuantity": {
          "value": 3,
          "unit": "Gy",
          "system": "http://unitsofmeasure.org",
          "code": "Gy"
        }
      }, {
        "url": "https://www.medizininformatik-initiative.de/fhir/ext/modul-onko/StructureDefinition/mii-ex-onko-strahlentherapie-bestrahlung-boost",
        "valueCodeableConcept": {
          "coding": [ {
            "system": "https://www.medizininformatik-initiative.de/fhir/ext/modul-onko/CodeSystem/mii-cs-onko-strahlentherapie-boost",
            "code": "J"
          } ]
        }
      } ],
      "identifier": [ {
        "system": "https://bzkf.github.io/obds-to-fhir/identifiers/strahlentherapie-bestrahlung-procedure-id",
        "value": "12_1_Strahlen-1-0"
      } ],
      "partOf": [ {
        "reference": "Procedure/ab777506937182733cc0aadcdf36234724a006177ba65acdb13258af95b5638b"
      } ],
      "status": "in-progress",
      "category": {
        "coding": [ {
          "system": "http://snomed.info/sct",
          "version": "http://snomed.info/sct/900000000000207008/version/20250501",
          "code": "1287742003",
          "display": "Radiotherapy (procedure)"
        } ]
      },
      "code": {
        "coding": [ {
          "system": "http://fhir.de/CodeSystem/bfarm/ops",
          "version": "2025",
          "code": "8-52",
          "display": "Strahlentherapie"
        } ]
      },
      "subject": {
        "reference": "Patient/6f5a4631aa1afa9fb3b290f6bb86163ea01f9b24bd1170e5d79a0c36995c2c57"
      },
      "performedPeriod": {
        "start": "2018-06-06"
      },
      "bodySite": [ {
        "extension": [ {
          "url": "https://www.medizininformatik-initiative.de/fhir/ext/modul-onko/StructureDefinition/mii-ex-onko-strahlentherapie-bestrahlung-seitenlokalisation",
          "valueCodeableConcept": {
            "coding": [ {
              "system": "https://www.medizininformatik-initiative.de/fhir/ext/modul-onko/CodeSystem/mii-cs-onko-seitenlokalisation",
              "code": "T"
            } ]
          }
        } ],
        "coding": [ {
          "system": "https://www.medizininformatik-initiative.de/fhir/ext/modul-onko/CodeSystem/mii-cs-onko-strahlentherapie-zielgebiet",
          "code": "1.1."
        } ]
      } ],
      "usedCode": [ {
        "coding": [ {
          "system": "https://www.medizininformatik-initiative.de/fhir/ext/modul-onko/CodeSystem/mii-cs-onko-strahlentherapie-strahlenart",
          "code": "NE"
        } ]
      } ]
    },
    "request": {
      "method": "PUT",
      "url": "Procedure/be702f3694be4fb15373b7ddee19a10aa7515009c8795b3aef73229633e5a0de"
    }
  }, {
    "fullUrl": "AdverseEvent/2388ab82dc76ff04abb291c34dcf61f890b3166aa69308b616f2873469d44cf3",
    "resource": {
      "resourceType": "AdverseEvent",
      "id": "2388ab82dc76ff04abb291c34dcf61f890b3166aa69308b616f2873469d44cf3",
      "meta": {
        "profile": [ "https://www.medizininformatik-initiative.de/fhir/ext/modul-onko/StructureDefinition/mii-pr-onko-nebenwirkung-adverse-event" ]
      },
      "identifier": {
        "system": "https://bzkf.github.io/obds-to-fhir/identifiers/nebenwirkung-adverse-event-id",
        "value": "mii-pr-onko-nebenwirkung-12_1_Strahlen-1-Grad-maximal-2-unbekannt"
      },
      "actuality": "actual",
      "event": {
        "extension": [ {
          "url": "http://hl7.org/fhir/StructureDefinition/data-absent-reason",
          "valueCode": "not-applicable"
        } ]
      },
      "subject": {
        "reference": "Patient/6f5a4631aa1afa9fb3b290f6bb86163ea01f9b24bd1170e5d79a0c36995c2c57"
      },
      "seriousness": {
        "coding": [ {
          "system": "https://www.medizininformatik-initiative.de/fhir/ext/modul-onko/CodeSystem/mii-cs-onko-nebenwirkung-ctcae-grad",
          "code": "U"
        } ]
      },
      "suspectEntity": [ {
        "instance": {
          "reference": "Procedure/ab777506937182733cc0aadcdf36234724a006177ba65acdb13258af95b5638b"
        }
      } ]
    },
    "request": {
      "method": "PUT",
      "url": "AdverseEvent/2388ab82dc76ff04abb291c34dcf61f890b3166aa69308b616f2873469d44cf3"
    }
  }, {
    "fullUrl": "Observation/715fc5706b94e04e7bc2f948b952e6d2a1ce3c2dc9b2f46eadc5e0f8af19aa1f",
    "resource": {
      "resourceType": "Observation",
      "id": "715fc5706b94e04e7bc2f948b952e6d2a1ce3c2dc9b2f46eadc5e0f8af19aa1f",
      "meta": {
        "profile": [ "https://www.medizininformatik-initiative.de/fhir/ext/modul-onko/StructureDefinition/mii-pr-onko-verlauf" ]
      },
      "identifier": [ {
        "system": "https://bzkf.github.io/obds-to-fhir/identifiers/verlauf-observation-id",
        "value": "1-2-3"
      } ],
      "status": "final",
      "code": {
        "coding": [ {
          "system": "http://snomed.info/sct",
          "version": "http://snomed.info/sct/900000000000207008/version/20250501",
          "code": "396432002",
          "display": "Status of regression of tumor (observable entity)"
        } ]
      },
      "subject": {
        "reference": "Patient/6f5a4631aa1afa9fb3b290f6bb86163ea01f9b24bd1170e5d79a0c36995c2c57"
      },
      "focus": [ {
        "reference": "Condition/c4396ca95fdae137b54465873fe2ccc7e7e2f5bb6b0c3edc3cc9bb59581f531c"
      } ],
      "effectiveDateTime": "2018-06-02",
      "valueCodeableConcept": {
        "coding": [ {
          "system": "https://www.medizininformatik-initiative.de/fhir/ext/modul-onko/CodeSystem/mii-cs-onko-verlauf-gesamtbeurteilung",
          "code": "P",
          "display": "Progression"
        } ]
      },
      "component": [ {
        "code": {
          "coding": [ {
            "system": "http://snomed.info/sct",
            "version": "http://snomed.info/sct/900000000000207008/version/20250501",
            "code": "277062004",
            "display": "Status des Residualtumors"
          } ]
        },
        "valueCodeableConcept": {
          "coding": [ {
            "system": "https://www.medizininformatik-initiative.de/fhir/ext/modul-onko/CodeSystem/mii-cs-onko-verlauf-primaertumor",
            "code": "K",
            "display": "kein Tumor nachweisbar"
          } ]
        }
      }, {
        "code": {
          "coding": [ {
            "system": "http://snomed.info/sct",
            "version": "http://snomed.info/sct/900000000000207008/version/20250501",
            "code": "399656008",
            "display": "Status of tumor metastasis to regional lymph nodes (observable entity)"
          } ]
        },
        "valueCodeableConcept": {
          "coding": [ {
            "system": "https://www.medizininformatik-initiative.de/fhir/ext/modul-onko/CodeSystem/mii-cs-onko-verlauf-lymphknoten",
            "code": "K",
            "display": "kein Lymphknotenbefall nachweisbar"
          } ]
        }
      }, {
        "code": {
          "coding": [ {
            "system": "http://snomed.info/sct",
            "version": "http://snomed.info/sct/900000000000207008/version/20250501",
            "code": "399608002",
            "display": "Status of distant metastasis (observable entity)"
          } ]
        },
        "valueCodeableConcept": {
          "coding": [ {
            "system": "https://www.medizininformatik-initiative.de/fhir/ext/modul-onko/CodeSystem/mii-cs-onko-verlauf-fernmetastasen",
            "code": "R",
            "display": "neu aufgetretene Fernmetastase(n) bzw. Metastasenrezidiv"
          } ]
        }
      } ]
    },
    "request": {
      "method": "PUT",
      "url": "Observation/715fc5706b94e04e7bc2f948b952e6d2a1ce3c2dc9b2f46eadc5e0f8af19aa1f"
    }
  }, {
    "fullUrl": "Observation/e7950487ad664f6ad1245f805c59d22d06ef2a0ad923901f680e3fa577965122",
    "resource": {
      "resourceType": "Observation",
      "id": "e7950487ad664f6ad1245f805c59d22d06ef2a0ad923901f680e3fa577965122",
      "meta": {
        "profile": [ "https://www.medizininformatik-initiative.de/fhir/ext/modul-onko/StructureDefinition/mii-pr-onko-allgemeiner-leistungszustand-ecog" ]
      },
      "identifier": [ {
        "system": "https://bzkf.github.io/obds-to-fhir/identifiers/allgemeiner-leistungszustand-ecog-id",
        "value": "ECOG-12_1_VE_1"
      } ],
      "status": "final",
      "code": {
        "coding": [ {
          "system": "http://snomed.info/sct",
          "version": "http://snomed.info/sct/900000000000207008/version/20250501",
          "code": "423740007",
          "display": "Eastern Cooperative Oncology Group performance status (observable entity)"
        }, {
          "system": "http://loinc.org",
          "version": "2.80",
          "code": "89262-0",
          "display": "ECOG Performance Status [Interpretation]"
        } ]
      },
      "subject": {
        "reference": "Patient/6f5a4631aa1afa9fb3b290f6bb86163ea01f9b24bd1170e5d79a0c36995c2c57"
      },
      "focus": [ {
        "reference": "Condition/c4396ca95fdae137b54465873fe2ccc7e7e2f5bb6b0c3edc3cc9bb59581f531c"
      } ],
      "effectiveDateTime": "2018-06-02",
      "valueCodeableConcept": {
        "coding": [ {
          "system": "https://www.medizininformatik-initiative.de/fhir/ext/modul-onko/CodeSystem/mii-cs-onko-allgemeiner-leistungszustand-ecog",
          "code": "2",
          "display": "Gehfähig, Selbstversorgung möglich, aber nicht arbeitsfähig; kann mehr als 50 % der Wachzeit aufstehen (50 - 60 % nach Karnofsky)"
        }, {
          "system": "http://loinc.org",
          "version": "2.80",
          "code": "LA9624-3",
          "display": "Ambulatory and capable of all selfcare but unable to carry out any work activities. Up and about more than 50% of waking hours"
        } ]
      }
    },
    "request": {
      "method": "PUT",
      "url": "Observation/e7950487ad664f6ad1245f805c59d22d06ef2a0ad923901f680e3fa577965122"
    }
  }, {
    "fullUrl": "Observation/66d516595ce02c44d0a0a4468e65f29af40fea407465cacaea88f617e37d2ac4",
    "resource": {
      "resourceType": "Observation",
      "id": "66d516595ce02c44d0a0a4468e65f29af40fea407465cacaea88f617e37d2ac4",
      "meta": {
        "profile": [ "https://www.medizininformatik-initiative.de/fhir/ext/modul-onko/StructureDefinition/mii-pr-onko-allgemeiner-leistungszustand-ecog" ]
      },
      "identifier": [ {
        "system": "https://bzkf.github.io/obds-to-fhir/identifiers/allgemeiner-leistungszustand-ecog-id",
        "value": "ECOG-12_1_DI-1"
      } ],
      "status": "final",
      "code": {
        "coding": [ {
          "system": "http://snomed.info/sct",
          "version": "http://snomed.info/sct/900000000000207008/version/20250501",
          "code": "423740007",
          "display": "Eastern Cooperative Oncology Group performance status (observable entity)"
        }, {
          "system": "http://loinc.org",
          "version": "2.80",
          "code": "89262-0",
          "display": "ECOG Performance Status [Interpretation]"
        } ]
      },
      "subject": {
        "reference": "Patient/6f5a4631aa1afa9fb3b290f6bb86163ea01f9b24bd1170e5d79a0c36995c2c57"
      },
      "focus": [ {
        "reference": "Condition/c4396ca95fdae137b54465873fe2ccc7e7e2f5bb6b0c3edc3cc9bb59581f531c"
      } ],
      "effectiveDateTime": "2017-07-02",
      "valueCodeableConcept": {
        "coding": [ {
          "system": "https://www.medizininformatik-initiative.de/fhir/ext/modul-onko/CodeSystem/mii-cs-onko-allgemeiner-leistungszustand-ecog",
          "code": "1",
          "display": "Einschränkung bei körperlicher Anstrengung, aber gehfähig; leichte körperliche Arbeit bzw. Arbeit im Sitzen (z. B. leichte Hausarbeit oder Büroarbeit) möglich (70 - 80 % nach Karnofsky)"
        }, {
          "system": "http://loinc.org",
          "version": "2.80",
          "code": "LA9623-5",
          "display": "Restricted in physically strenuous activity but ambulatory and able to carry out work of a light or sedentary nature, e.g., light house work, office work"
        } ]
      }
    },
    "request": {
      "method": "PUT",
      "url": "Observation/66d516595ce02c44d0a0a4468e65f29af40fea407465cacaea88f617e37d2ac4"
    }
  }, {
    "fullUrl": "Specimen/f67905a247bee2ed0a0a6388c4a820b19cd668be1482a0a2fc7df81c15576ffa",
    "resource": {
      "resourceType": "Specimen",
      "id": "f67905a247bee2ed0a0a6388c4a820b19cd668be1482a0a2fc7df81c15576ffa",
      "meta": {
        "profile": [ "https://www.medizininformatik-initiative.de/fhir/ext/modul-onko/StructureDefinition/mii-pr-onko-specimen" ]
      },
      "identifier": [ {
        "system": "https://bzkf.github.io/obds-to-fhir/identifiers/histologie-specimen-id",
        "value": "280"
      } ],
      "accessionIdentifier": {
        "value": "H111/2017"
      },
      "subject": {
        "reference": "Patient/6f5a4631aa1afa9fb3b290f6bb86163ea01f9b24bd1170e5d79a0c36995c2c57"
      },
      "collection": {
        "collectedDateTime": "2017-07-02"
      }
    },
    "request": {
      "method": "PUT",
      "url": "Specimen/f67905a247bee2ed0a0a6388c4a820b19cd668be1482a0a2fc7df81c15576ffa"
    }
  }, {
    "fullUrl": "Observation/1e7d5d97cd0cd644942036d8c612b5421ccda0a6d0fd2c961d02d028f7c086dd",
    "resource": {
      "resourceType": "Observation",
      "id": "1e7d5d97cd0cd644942036d8c612b5421ccda0a6d0fd2c961d02d028f7c086dd",
      "meta": {
        "profile": [ "https://www.medizininformatik-initiative.de/fhir/ext/modul-onko/StructureDefinition/mii-pr-onko-grading" ]
      },
      "identifier": [ {
        "system": "https://bzkf.github.io/obds-to-fhir/identifiers/grading-observation-id",
        "value": "280-grading"
      } ],
      "status": "final",
      "category": [ {
        "coding": [ {
          "system": "http://terminology.hl7.org/CodeSystem/observation-category",
          "code": "laboratory"
        } ]
      } ],
      "code": {
        "coding": [ {
          "system": "http://loinc.org",
          "version": "2.80",
          "code": "33732-9",
          "display": "Histology grade [Identifier] in Cancer specimen"
        }, {
          "system": "http://snomed.info/sct",
          "version": "http://snomed.info/sct/900000000000207008/version/20250501",
          "code": "371469007",
          "display": "Histologic grade of neoplasm (observable entity)"
        } ]
      },
      "subject": {
        "reference": "Patient/6f5a4631aa1afa9fb3b290f6bb86163ea01f9b24bd1170e5d79a0c36995c2c57"
      },
      "focus": [ {
        "reference": "Condition/c4396ca95fdae137b54465873fe2ccc7e7e2f5bb6b0c3edc3cc9bb59581f531c"
      } ],
      "effectiveDateTime": "2017-07-02",
      "valueCodeableConcept": {
        "coding": [ {
          "system": "https://www.medizininformatik-initiative.de/fhir/ext/modul-onko/CodeSystem/mii-cs-onko-grading",
          "code": "3"
        } ]
      },
      "specimen": {
        "reference": "Specimen/f67905a247bee2ed0a0a6388c4a820b19cd668be1482a0a2fc7df81c15576ffa"
      }
    },
    "request": {
      "method": "PUT",
      "url": "Observation/1e7d5d97cd0cd644942036d8c612b5421ccda0a6d0fd2c961d02d028f7c086dd"
    }
  }, {
    "fullUrl": "Observation/65fb88acfd7a2c104126a8bcb7cee2db39b79086849d926b5333cdfdad2c1cef",
    "resource": {
      "resourceType": "Observation",
      "id": "65fb88acfd7a2c104126a8bcb7cee2db39b79086849d926b5333cdfdad2c1cef",
      "meta": {
        "profile": [ "https://www.medizininformatik-initiative.de/fhir/ext/modul-onko/StructureDefinition/mii-pr-onko-weitere-klassifikationen" ]
      },
      "identifier": [ {
        "system": "https://bzkf.github.io/obds-to-fhir/identifiers/weitere-klassifikation-observation-id",
        "value": "12_1_DI-1-FIGO-2017-07-02"
      } ],
      "status": "final",
      "code": {
        "text": "FIGO"
      },
      "subject": {
        "reference": "Patient/6f5a4631aa1afa9fb3b290f6bb86163ea01f9b24bd1170e5d79a0c36995c2c57"
      },
      "focus": [ {
        "reference": "Condition/c4396ca95fdae137b54465873fe2ccc7e7e2f5bb6b0c3edc3cc9bb59581f531c"
      } ],
      "effectiveDateTime": "2017-07-02",
      "valueCodeableConcept": {
        "coding": [ {
          "code": "IIIB"
        } ]
      }
    },
    "request": {
      "method": "PUT",
      "url": "Observation/65fb88acfd7a2c104126a8bcb7cee2db39b79086849d926b5333cdfdad2c1cef"
    }
  }, {
    "fullUrl": "List/9714da8552e255236b553dde05d76217d62eb887d34b4dab24bbec3a169811f9",
    "resource": {
      "resourceType": "List",
      "id": "9714da8552e255236b553dde05d76217d62eb887d34b4dab24bbec3a169811f9",
      "meta": {
        "profile": [ "https://www.medizininformatik-initiative.de/fhir/ext/modul-onko/StructureDefinition/mii-pr-onko-liste-evidenz-erstdiagnose" ]
      },
      "identifier": [ {
        "system": "https://bzkf.github.io/obds-to-fhir/identifiers/erstdiagnose-evidenz-list-id",
        "value": "12-121"
      } ],
      "status": "current",
      "mode": "snapshot",
      "title": "Liste der Evidenz zum Erstdiagnosezeitpunkt",
      "subject": {
        "reference": "Patient/6f5a4631aa1afa9fb3b290f6bb86163ea01f9b24bd1170e5d79a0c36995c2c57"
      },
      "entry": [ {
        "item": {
          "reference": "Observation/66d516595ce02c44d0a0a4468e65f29af40fea407465cacaea88f617e37d2ac4"
        }
      }, {
        "item": {
          "reference": "Observation/1e7d5d97cd0cd644942036d8c612b5421ccda0a6d0fd2c961d02d028f7c086dd"
        }
      }, {
        "item": {
          "reference": "Observation/65fb88acfd7a2c104126a8bcb7cee2db39b79086849d926b5333cdfdad2c1cef"
        }
      } ]
    },
    "request": {
      "method": "PUT",
      "url": "List/9714da8552e255236b553dde05d76217d62eb887d34b4dab24bbec3a169811f9"
    }
  } ]
}