{
  "resourceType": "Bundle",
  "id": "a02e16474896f1d528cac71f2c9b4c45ac3c9028e3a53fb414a1f7882991ee07",
  "type": "transaction",
  "entry": [ {
    "fullUrl": "Patient/a02e16474896f1d528cac71f2c9b4c45ac3c9028e3a53fb414a1f7882991ee07",
    "resource": {
      "resourceType": "Patient",
      "id": "a02e16474896f1d528cac71f2c9b4c45ac3c9028e3a53fb414a1f7882991ee07",
      "meta": {
        "profile": [ "https://www.medizininformatik-initiative.de/fhir/core/modul-person/StructureDefinition/PatientPseudonymisiert" ]
      },
      "identifier": [ {
        "type": {
          "coding": [ {
            "system": "http://terminology.hl7.org/CodeSystem/v2-0203",
            "code": "MR",
            "display": "Medical record number"
          }, {
            "system": "http://terminology.hl7.org/CodeSystem/v3-ObservationValue",
            "code": "PSEUDED",
            "display": "pseudonymized"
          } ]
        },
        "system": "https://bzkf.github.io/obds-to-fhir/identifiers/patient-id",
        "value": "10"
      } ],
      "gender": "female",
      "birthDate": "1950-05-01",
      "deceasedDateTime": "2022-08-01",
      "address": [ {
        "type": "both",
        "postalCode": "12345",
        "country": "DE"
      } ]
    },
    "request": {
      "method": "PUT",
      "url": "Patient/a02e16474896f1d528cac71f2c9b4c45ac3c9028e3a53fb414a1f7882991ee07"
    }
  }, {
    "fullUrl": "Condition/528cbfb627eff7b031c902f2a97d149f5640d57a28f705fadba22462aae7c408",
    "resource": {
      "resourceType": "Condition",
      "id": "528cbfb627eff7b031c902f2a97d149f5640d57a28f705fadba22462aae7c408",
      "meta": {
        "profile": [ "https://www.medizininformatik-initiative.de/fhir/ext/modul-onko/StructureDefinition/mii-pr-onko-diagnose-primaertumor" ]
      },
      "extension": [ {
        "url": "https://www.medizininformatik-initiative.de/fhir/ext/modul-onko/StructureDefinition/mii-ex-onko-histology-morphology-behavior-icdo3",
        "valueCodeableConcept": {
          "coding": [ {
            "system": "http://terminology.hl7.org/CodeSystem/icd-o-3",
            "version": "33",
            "code": "8010/3"
          } ],
          "text": "Karzinom o.n.A."
        }
      }, {
        "url": "http://hl7.org/fhir/StructureDefinition/condition-assertedDate",
        "valueDateTime": "2020-03-01"
      } ],
      "identifier": [ {
        "system": "https://bzkf.github.io/obds-to-fhir/identifiers/primaerdiagnose-condition-id",
        "value": "10-101"
      } ],
      "verificationStatus": {
        "coding": [ {
          "system": "http://terminology.hl7.org/CodeSystem/condition-ver-status",
          "code": "confirmed"
        }, {
          "system": "https://www.medizininformatik-initiative.de/fhir/ext/modul-onko/CodeSystem/mii-cs-onko-primaertumor-diagnosesicherung",
          "code": "7"
        } ]
      },
      "code": {
        "coding": [ {
          "system": "http://fhir.de/CodeSystem/bfarm/icd-10-gm",
          "version": "2020",
          "code": "C61"
        } ]
      },
      "subject": {
        "reference": "Patient/a02e16474896f1d528cac71f2c9b4c45ac3c9028e3a53fb414a1f7882991ee07"
      },
      "recordedDate": "2024-09-19",
      "evidence": [ {
        "detail": [ {
          "reference": "List/483f7b24cb55c6ac1fb6e384e77182e488eab7ee9c8b7c9200350db806a0b0bb"
        } ]
      } ]
    },
    "request": {
      "method": "PUT",
      "url": "Condition/528cbfb627eff7b031c902f2a97d149f5640d57a28f705fadba22462aae7c408"
    }
  }, {
    "fullUrl": "Procedure/d7a6e92bb5ff8306601e98c5517f1cf7cd632ef3a9ef2d9ec4f2d0209b3cde73",
    "resource": {
      "resourceType": "Procedure",
      "id": "d7a6e92bb5ff8306601e98c5517f1cf7cd632ef3a9ef2d9ec4f2d0209b3cde73",
      "meta": {
        "profile": [ "https://www.medizininformatik-initiative.de/fhir/ext/modul-onko/StructureDefinition/mii-pr-onko-operation" ]
      },
      "extension": [ {
        "url": "https://www.medizininformatik-initiative.de/fhir/ext/modul-onko/StructureDefinition/mii-ex-onko-operation-intention",
        "valueCodeableConcept": {
          "coding": [ {
            "system": "https://www.medizininformatik-initiative.de/fhir/ext/modul-onko/CodeSystem/mii-cs-onko-intention",
            "code": "K"
          } ]
        }
      } ],
      "identifier": [ {
        "system": "https://bzkf.github.io/obds-to-fhir/identifiers/operation-procedure-id",
        "value": "301-5-401-1"
      } ],
      "status": "completed",
      "category": {
        "coding": [ {
          "system": "http://snomed.info/sct",
          "version": "http://snomed.info/sct/900000000000207008/version/20250501",
          "code": "387713003",
          "display": "Surgical procedure"
        } ]
      },
      "code": {
        "coding": [ {
          "system": "http://fhir.de/CodeSystem/bfarm/ops",
          "version": "2020",
          "code": "5-401.1"
        } ]
      },
      "subject": {
        "reference": "Patient/a02e16474896f1d528cac71f2c9b4c45ac3c9028e3a53fb414a1f7882991ee07"
      },
      "performedDateTime": "2020-03-05",
      "reasonReference": [ {
        "reference": "Condition/528cbfb627eff7b031c902f2a97d149f5640d57a28f705fadba22462aae7c408"
      } ],
      "outcome": {
        "coding": [ {
          "system": "https://www.medizininformatik-initiative.de/fhir/ext/modul-onko/CodeSystem/mii-cs-onko-residualstatus",
          "code": "R0"
        } ]
      }
    },
    "request": {
      "method": "PUT",
      "url": "Procedure/d7a6e92bb5ff8306601e98c5517f1cf7cd632ef3a9ef2d9ec4f2d0209b3cde73"
    }
  }, {
    "fullUrl": "Procedure/ccd6a5395c9e15f4132dee7ca035342fc3da93b3b9737b22672d868892e1b783",
    "resource": {
      "resourceType": "Procedure",
      "id": "ccd6a5395c9e15f4132dee7ca035342fc3da93b3b9737b22672d868892e1b783",
      "meta": {
        "profile": [ "https://www.medizininformatik-initiative.de/fhir/ext/modul-onko/StructureDefinition/mii-pr-onko-operation" ]
      },
      "extension": [ {
        "url": "https://www.medizininformatik-initiative.de/fhir/ext/modul-onko/StructureDefinition/mii-ex-onko-operation-intention",
        "valueCodeableConcept": {
          "coding": [ {
            "system": "https://www.medizininformatik-initiative.de/fhir/ext/modul-onko/CodeSystem/mii-cs-onko-intention",
            "code": "K"
          } ]
        }
      } ],
      "identifier": [ {
        "system": "https://bzkf.github.io/obds-to-fhir/identifiers/operation-procedure-id",
        "value": "301-5-870"
      } ],
      "status": "completed",
      "category": {
        "coding": [ {
          "system": "http://snomed.info/sct",
          "version": "http://snomed.info/sct/900000000000207008/version/20250501",
          "code": "387713003",
          "display": "Surgical procedure"
        } ]
      },
      "code": {
        "coding": [ {
          "system": "http://fhir.de/CodeSystem/bfarm/ops",
          "version": "2020",
          "code": "5-870"
        } ]
      },
      "subject": {
        "reference": "Patient/a02e16474896f1d528cac71f2c9b4c45ac3c9028e3a53fb414a1f7882991ee07"
      },
      "performedDateTime": "2020-03-05",
      "reasonReference": [ {
        "reference": "Condition/528cbfb627eff7b031c902f2a97d149f5640d57a28f705fadba22462aae7c408"
      } ],
      "outcome": {
        "coding": [ {
          "system": "https://www.medizininformatik-initiative.de/fhir/ext/modul-onko/CodeSystem/mii-cs-onko-residualstatus",
          "code": "R0"
        } ]
      }
    },
    "request": {
      "method": "PUT",
      "url": "Procedure/ccd6a5395c9e15f4132dee7ca035342fc3da93b3b9737b22672d868892e1b783"
    }
  }, {
    "fullUrl": "Observation/daa3a29e56fbbdcdf2d899040e8a515eb5ae62414b7e1478d79d0b499469bbcc",
    "resource": {
      "resourceType": "Observation",
      "id": "daa3a29e56fbbdcdf2d899040e8a515eb5ae62414b7e1478d79d0b499469bbcc",
      "identifier": [ {
        "system": "https://bzkf.github.io/obds-to-fhir/identifiers/residualstatus-observation-id",
        "value": "301"
      } ],
      "status": "final",
      "code": {
        "coding": [ {
          "system": "http://loinc.org",
          "version": "2.80",
          "code": "84892-9",
          "display": "Residual tumor classification [Type] in Cancer specimen"
        } ]
      },
      "subject": {
        "reference": "Patient/a02e16474896f1d528cac71f2c9b4c45ac3c9028e3a53fb414a1f7882991ee07"
      },
      "focus": [ {
        "reference": "Condition/528cbfb627eff7b031c902f2a97d149f5640d57a28f705fadba22462aae7c408"
      } ],
      "effectiveDateTime": "2020-03-05",
      "valueCodeableConcept": {
        "coding": [ {
          "system": "https://www.medizininformatik-initiative.de/fhir/ext/modul-onko/CodeSystem/mii-cs-onko-residualstatus",
          "code": "R2"
        } ]
      }
    },
    "request": {
      "method": "PUT",
      "url": "Observation/daa3a29e56fbbdcdf2d899040e8a515eb5ae62414b7e1478d79d0b499469bbcc"
    }
  }, {
    "fullUrl": "Specimen/0bff7444308f734311de0b6811953da5d79150e6dbbb09083d79b142b36ef659",
    "resource": {
      "resourceType": "Specimen",
      "id": "0bff7444308f734311de0b6811953da5d79150e6dbbb09083d79b142b36ef659",
      "meta": {
        "profile": [ "https://www.medizininformatik-initiative.de/fhir/ext/modul-onko/StructureDefinition/mii-pr-onko-specimen" ]
      },
      "identifier": [ {
        "system": "https://bzkf.github.io/obds-to-fhir/identifiers/histologie-specimen-id",
        "value": "522"
      } ],
      "accessionIdentifier": {
        "value": "X/123456/1"
      },
      "subject": {
        "reference": "Patient/a02e16474896f1d528cac71f2c9b4c45ac3c9028e3a53fb414a1f7882991ee07"
      },
      "collection": {
        "collectedDateTime": "2020-03-05"
      }
    },
    "request": {
      "method": "PUT",
      "url": "Specimen/0bff7444308f734311de0b6811953da5d79150e6dbbb09083d79b142b36ef659"
    }
  }, {
    "fullUrl": "Observation/f5dd92703653c49ab986fa65e4128818ac109316833da78f397379925bd999b0",
    "resource": {
      "resourceType": "Observation",
      "id": "f5dd92703653c49ab986fa65e4128818ac109316833da78f397379925bd999b0",
      "meta": {
        "profile": [ "https://www.medizininformatik-initiative.de/fhir/ext/modul-onko/StructureDefinition/mii-pr-onko-histologie-icdo3" ]
      },
      "identifier": [ {
        "system": "https://bzkf.github.io/obds-to-fhir/identifiers/verlaufshistologie-observation-id",
        "value": "522-ICDO3-8010-3"
      } ],
      "status": "final",
      "code": {
        "coding": [ {
          "system": "http://loinc.org",
          "version": "2.80",
          "code": "59847-4",
          "display": "Histology and Behavior ICD-O-3 Cancer"
        } ]
      },
      "subject": {
        "reference": "Patient/a02e16474896f1d528cac71f2c9b4c45ac3c9028e3a53fb414a1f7882991ee07"
      },
      "focus": [ {
        "reference": "Condition/528cbfb627eff7b031c902f2a97d149f5640d57a28f705fadba22462aae7c408"
      } ],
      "effectiveDateTime": "2020-03-05",
      "valueCodeableConcept": {
        "coding": [ {
          "system": "http://terminology.hl7.org/CodeSystem/icd-o-3",
          "version": "33",
          "code": "8010/3"
        } ],
        "text": "Karzinom o.n.A."
      },
      "specimen": {
        "reference": "Specimen/0bff7444308f734311de0b6811953da5d79150e6dbbb09083d79b142b36ef659"
      }
    },
    "request": {
      "method": "PUT",
      "url": "Observation/f5dd92703653c49ab986fa65e4128818ac109316833da78f397379925bd999b0"
    }
  }, {
    "fullUrl": "Observation/c0a864d2cc08c699d2880b9b05980317e5a17da27011651f7034c59057e62572",
    "resource": {
      "resourceType": "Observation",
      "id": "c0a864d2cc08c699d2880b9b05980317e5a17da27011651f7034c59057e62572",
      "meta": {
        "profile": [ "https://www.medizininformatik-initiative.de/fhir/ext/modul-onko/StructureDefinition/mii-pr-onko-grading" ]
      },
      "identifier": [ {
        "system": "https://bzkf.github.io/obds-to-fhir/identifiers/grading-observation-id",
        "value": "522-grading"
      } ],
      "status": "final",
      "category": [ {
        "coding": [ {
          "system": "http://terminology.hl7.org/CodeSystem/observation-category",
          "code": "laboratory"
        } ]
      } ],
      "code": {
        "coding": [ {
          "system": "http://loinc.org",
          "version": "2.80",
          "code": "33732-9",
          "display": "Histology grade [Identifier] in Cancer specimen"
        }, {
          "system": "http://snomed.info/sct",
          "version": "http://snomed.info/sct/900000000000207008/version/20250501",
          "code": "371469007",
          "display": "Histologic grade of neoplasm (observable entity)"
        } ]
      },
      "subject": {
        "reference": "Patient/a02e16474896f1d528cac71f2c9b4c45ac3c9028e3a53fb414a1f7882991ee07"
      },
      "focus": [ {
        "reference": "Condition/528cbfb627eff7b031c902f2a97d149f5640d57a28f705fadba22462aae7c408"
      } ],
      "effectiveDateTime": "2020-03-05",
      "valueCodeableConcept": {
        "coding": [ {
          "system": "https://www.medizininformatik-initiative.de/fhir/ext/modul-onko/CodeSystem/mii-cs-onko-grading",
          "code": "2"
        } ]
      },
      "specimen": {
        "reference": "Specimen/0bff7444308f734311de0b6811953da5d79150e6dbbb09083d79b142b36ef659"
      }
    },
    "request": {
      "method": "PUT",
      "url": "Observation/c0a864d2cc08c699d2880b9b05980317e5a17da27011651f7034c59057e62572"
    }
  }, {
    "fullUrl": "Observation/97d55e3c5474a1cefc5025e41958bb468caa173ff93bc80e2d6c056881861258",
    "resource": {
      "resourceType": "Observation",
      "id": "97d55e3c5474a1cefc5025e41958bb468caa173ff93bc80e2d6c056881861258",
      "meta": {
        "profile": [ "https://www.medizininformatik-initiative.de/fhir/ext/modul-onko/StructureDefinition/mii-pr-onko-anzahl-befallene-lymphknoten" ]
      },
      "identifier": [ {
        "system": "https://bzkf.github.io/obds-to-fhir/identifiers/lymphknotenuntersuchung-observation-id",
        "value": "522-befallen"
      } ],
      "status": "final",
      "category": [ {
        "coding": [ {
          "system": "http://terminology.hl7.org/CodeSystem/observation-category",
          "code": "laboratory"
        } ]
      } ],
      "code": {
        "coding": [ {
          "system": "http://loinc.org",
          "version": "2.80",
          "code": "21893-3"
        }, {
          "system": "http://snomed.info/sct",
          "version": "http://snomed.info/sct/900000000000207008/version/20250501",
          "code": "443527007"
        } ]
      },
      "subject": {
        "reference": "Patient/a02e16474896f1d528cac71f2c9b4c45ac3c9028e3a53fb414a1f7882991ee07"
      },
      "focus": [ {
        "reference": "Condition/528cbfb627eff7b031c902f2a97d149f5640d57a28f705fadba22462aae7c408"
      } ],
      "effectiveDateTime": "2020-03-05",
      "valueQuantity": {
        "value": 2,
        "unit": "#",
        "system": "http://unitsofmeasure.org",
        "code": "1"
      },
      "specimen": {
        "reference": "Specimen/0bff7444308f734311de0b6811953da5d79150e6dbbb09083d79b142b36ef659"
      }
    },
    "request": {
      "method": "PUT",
      "url": "Observation/97d55e3c5474a1cefc5025e41958bb468caa173ff93bc80e2d6c056881861258"
    }
  }, {
    "fullUrl": "Observation/5de1b43c9f9e06440d804433f17d33df6aefd272cb8c30bc70f304e360eb36f4",
    "resource": {
      "resourceType": "Observation",
      "id": "5de1b43c9f9e06440d804433f17d33df6aefd272cb8c30bc70f304e360eb36f4",
      "meta": {
        "profile": [ "https://www.medizininformatik-initiative.de/fhir/ext/modul-onko/StructureDefinition/mii-pr-onko-anzahl-untersuchte-lymphknoten" ]
      },
      "identifier": [ {
        "system": "https://bzkf.github.io/obds-to-fhir/identifiers/lymphknotenuntersuchung-observation-id",
        "value": "522-untersucht"
      } ],
      "status": "final",
      "category": [ {
        "coding": [ {
          "system": "http://terminology.hl7.org/CodeSystem/observation-category",
          "code": "laboratory"
        } ]
      } ],
      "code": {
        "coding": [ {
          "system": "http://loinc.org",
          "version": "2.80",
          "code": "21894-1"
        }, {
          "system": "http://snomed.info/sct",
          "version": "http://snomed.info/sct/900000000000207008/version/20250501",
          "code": "444025001"
        } ]
      },
      "subject": {
        "reference": "Patient/a02e16474896f1d528cac71f2c9b4c45ac3c9028e3a53fb414a1f7882991ee07"
      },
      "focus": [ {
        "reference": "Condition/528cbfb627eff7b031c902f2a97d149f5640d57a28f705fadba22462aae7c408"
      } ],
      "effectiveDateTime": "2020-03-05",
      "valueQuantity": {
        "value": 10,
        "unit": "#",
        "system": "http://unitsofmeasure.org",
        "code": "1"
      },
      "specimen": {
        "reference": "Specimen/0bff7444308f734311de0b6811953da5d79150e6dbbb09083d79b142b36ef659"
      }
    },
    "request": {
      "method": "PUT",
      "url": "Observation/5de1b43c9f9e06440d804433f17d33df6aefd272cb8c30bc70f304e360eb36f4"
    }
  }, {
    "fullUrl": "Observation/88c0be3121ff983c8c79438eec89afa15435930a0a0866b8b6040e179be0ce26",
    "resource": {
      "resourceType": "Observation",
      "id": "88c0be3121ff983c8c79438eec89afa15435930a0a0866b8b6040e179be0ce26",
      "meta": {
        "profile": [ "https://www.medizininformatik-initiative.de/fhir/ext/modul-onko/StructureDefinition/mii-pr-onko-anzahl-befallene-sentinel-lymphknoten" ]
      },
      "identifier": [ {
        "system": "https://bzkf.github.io/obds-to-fhir/identifiers/lymphknotenuntersuchung-observation-id",
        "value": "522-befallen-sentinel"
      } ],
      "status": "final",
      "category": [ {
        "coding": [ {
          "system": "http://terminology.hl7.org/CodeSystem/observation-category",
          "code": "laboratory"
        } ]
      } ],
      "code": {
        "coding": [ {
          "system": "http://loinc.org",
          "version": "2.80",
          "code": "92832-5"
        }, {
          "system": "http://snomed.info/sct",
          "version": "http://snomed.info/sct/900000000000207008/version/20250501",
          "code": "1264491009"
        } ]
      },
      "subject": {
        "reference": "Patient/a02e16474896f1d528cac71f2c9b4c45ac3c9028e3a53fb414a1f7882991ee07"
      },
      "focus": [ {
        "reference": "Condition/528cbfb627eff7b031c902f2a97d149f5640d57a28f705fadba22462aae7c408"
      } ],
      "effectiveDateTime": "2020-03-05",
      "valueQuantity": {
        "value": 1,
        "unit": "#",
        "system": "http://unitsofmeasure.org",
        "code": "1"
      },
      "specimen": {
        "reference": "Specimen/0bff7444308f734311de0b6811953da5d79150e6dbbb09083d79b142b36ef659"
      }
    },
    "request": {
      "method": "PUT",
      "url": "Observation/88c0be3121ff983c8c79438eec89afa15435930a0a0866b8b6040e179be0ce26"
    }
  }, {
    "fullUrl": "Observation/a4363ed8658d46125c1c965b3c454d7258e97cf6de717286a5c5403564638e60",
    "resource": {
      "resourceType": "Observation",
      "id": "a4363ed8658d46125c1c965b3c454d7258e97cf6de717286a5c5403564638e60",
      "meta": {
        "profile": [ "https://www.medizininformatik-initiative.de/fhir/ext/modul-onko/StructureDefinition/mii-pr-onko-anzahl-untersuchte-sentinel-lymphknoten" ]
      },
      "identifier": [ {
        "system": "https://bzkf.github.io/obds-to-fhir/identifiers/lymphknotenuntersuchung-observation-id",
        "value": "522-untersucht-sentinel"
      } ],
      "status": "final",
      "category": [ {
        "coding": [ {
          "system": "http://terminology.hl7.org/CodeSystem/observation-category",
          "code": "laboratory"
        } ]
      } ],
      "code": {
        "coding": [ {
          "system": "http://loinc.org",
          "version": "2.80",
          "code": "85347-3"
        }, {
          "system": "http://snomed.info/sct",
          "version": "http://snomed.info/sct/900000000000207008/version/20250501",
          "code": "444411008"
        } ]
      },
      "subject": {
        "reference": "Patient/a02e16474896f1d528cac71f2c9b4c45ac3c9028e3a53fb414a1f7882991ee07"
      },
      "focus": [ {
        "reference": "Condition/528cbfb627eff7b031c902f2a97d149f5640d57a28f705fadba22462aae7c408"
      } ],
      "effectiveDateTime": "2020-03-05",
      "valueQuantity": {
        "value": 2,
        "unit": "#",
        "system": "http://unitsofmeasure.org",
        "code": "1"
      },
      "specimen": {
        "reference": "Specimen/0bff7444308f734311de0b6811953da5d79150e6dbbb09083d79b142b36ef659"
      }
    },
    "request": {
      "method": "PUT",
      "url": "Observation/a4363ed8658d46125c1c965b3c454d7258e97cf6de717286a5c5403564638e60"
    }
  }, {
    "fullUrl": "Observation/ce2ab793058d0d1d720f72408157051b44cf298ba10acda86e9cfc4468c599c8",
    "resource": {
      "resourceType": "Observation",
      "id": "ce2ab793058d0d1d720f72408157051b44cf298ba10acda86e9cfc4468c599c8",
      "meta": {
        "profile": [ "https://www.medizininformatik-initiative.de/fhir/ext/modul-onko/StructureDefinition/mii-pr-onko-tnm-t-kategorie" ]
      },
      "identifier": [ {
        "system": "https://bzkf.github.io/obds-to-fhir/identifiers/tnm-t-kategorie-observation-id",
        "value": "483-2020-03-05-T"
      } ],
      "status": "final",
      "code": {
        "extension": [ {
          "url": "https://www.medizininformatik-initiative.de/fhir/ext/modul-onko/StructureDefinition/mii-ex-onko-tnm-cp-praefix",
          "valueCodeableConcept": {
            "coding": [ {
              "system": "https://www.uicc.org/resources/tnm",
              "code": "p"
            } ]
          }
        } ],
        "coding": [ {
          "system": "http://snomed.info/sct",
          "version": "http://snomed.info/sct/900000000000207008/version/20250501",
          "code": "384625004",
          "display": "pT category (observable entity)"
        } ]
      },
      "subject": {
        "reference": "Patient/a02e16474896f1d528cac71f2c9b4c45ac3c9028e3a53fb414a1f7882991ee07"
      },
      "focus": [ {
        "reference": "Condition/528cbfb627eff7b031c902f2a97d149f5640d57a28f705fadba22462aae7c408"
      } ],
      "effectiveDateTime": "2020-03-05",
      "valueCodeableConcept": {
        "coding": [ {
          "system": "https://www.uicc.org/resources/tnm",
          "code": "T2"
        } ]
      },
      "method": {
        "coding": [ {
          "system": "https://www.medizininformatik-initiative.de/fhir/ext/modul-onko/CodeSystem/mii-cs-onko-tnm-version",
          "code": "8"
        } ]
      }
    },
    "request": {
      "method": "PUT",
      "url": "Observation/ce2ab793058d0d1d720f72408157051b44cf298ba10acda86e9cfc4468c599c8"
    }
  }, {
    "fullUrl": "Observation/b32453f7a774d398ab9b6fb4359a0d5aa7b381fad89a3cb5519d0562d8f962f2",
    "resource": {
      "resourceType": "Observation",
      "id": "b32453f7a774d398ab9b6fb4359a0d5aa7b381fad89a3cb5519d0562d8f962f2",
      "meta": {
        "profile": [ "https://www.medizininformatik-initiative.de/fhir/ext/modul-onko/StructureDefinition/mii-pr-onko-tnm-n-kategorie" ]
      },
      "identifier": [ {
        "system": "https://bzkf.github.io/obds-to-fhir/identifiers/tnm-n-kategorie-observation-id",
        "value": "483-2020-03-05-N"
      } ],
      "status": "final",
      "code": {
        "extension": [ {
          "url": "https://www.medizininformatik-initiative.de/fhir/ext/modul-onko/StructureDefinition/mii-ex-onko-tnm-cp-praefix",
          "valueCodeableConcept": {
            "coding": [ {
              "system": "https://www.uicc.org/resources/tnm",
              "code": "p"
            } ]
          }
        } ],
        "coding": [ {
          "system": "http://snomed.info/sct",
          "version": "http://snomed.info/sct/900000000000207008/version/20250501",
          "code": "371494008",
          "display": "pN category (observable entity)"
        } ]
      },
      "subject": {
        "reference": "Patient/a02e16474896f1d528cac71f2c9b4c45ac3c9028e3a53fb414a1f7882991ee07"
      },
      "focus": [ {
        "reference": "Condition/528cbfb627eff7b031c902f2a97d149f5640d57a28f705fadba22462aae7c408"
      } ],
      "effectiveDateTime": "2020-03-05",
      "valueCodeableConcept": {
        "coding": [ {
          "system": "https://www.uicc.org/resources/tnm",
          "code": "N1"
        } ]
      },
      "method": {
        "coding": [ {
          "system": "https://www.medizininformatik-initiative.de/fhir/ext/modul-onko/CodeSystem/mii-cs-onko-tnm-version",
          "code": "8"
        } ]
      }
    },
    "request": {
      "method": "PUT",
      "url": "Observation/b32453f7a774d398ab9b6fb4359a0d5aa7b381fad89a3cb5519d0562d8f962f2"
    }
  }, {
    "fullUrl": "Observation/76d65485d80344aa09b4bf451874e1e2bb0bb8f562b58def45e5bc206ae385f4",
    "resource": {
      "resourceType": "Observation",
      "id": "76d65485d80344aa09b4bf451874e1e2bb0bb8f562b58def45e5bc206ae385f4",
      "meta": {
        "profile": [ "https://www.medizininformatik-initiative.de/fhir/ext/modul-onko/StructureDefinition/mii-pr-onko-tnm-m-kategorie" ]
      },
      "identifier": [ {
        "system": "https://bzkf.github.io/obds-to-fhir/identifiers/tnm-m-kategorie-observation-id",
        "value": "483-2020-03-05-M"
      } ],
      "status": "final",
      "code": {
        "extension": [ {
          "url": "https://www.medizininformatik-initiative.de/fhir/ext/modul-onko/StructureDefinition/mii-ex-onko-tnm-cp-praefix",
          "valueCodeableConcept": {
            "coding": [ {
              "system": "https://www.uicc.org/resources/tnm",
              "code": "p"
            } ]
          }
        } ],
        "coding": [ {
          "system": "http://snomed.info/sct",
          "version": "http://snomed.info/sct/900000000000207008/version/20250501",
          "code": "371497001",
          "display": "pM category (observable entity)"
        } ]
      },
      "subject": {
        "reference": "Patient/a02e16474896f1d528cac71f2c9b4c45ac3c9028e3a53fb414a1f7882991ee07"
      },
      "focus": [ {
        "reference": "Condition/528cbfb627eff7b031c902f2a97d149f5640d57a28f705fadba22462aae7c408"
      } ],
      "effectiveDateTime": "2020-03-05",
      "valueCodeableConcept": {
        "coding": [ {
          "system": "https://www.uicc.org/resources/tnm",
          "code": "M1"
        } ]
      },
      "method": {
        "coding": [ {
          "system": "https://www.medizininformatik-initiative.de/fhir/ext/modul-onko/CodeSystem/mii-cs-onko-tnm-version",
          "code": "8"
        } ]
      }
    },
    "request": {
      "method": "PUT",
      "url": "Observation/76d65485d80344aa09b4bf451874e1e2bb0bb8f562b58def45e5bc206ae385f4"
    }
  }, {
    "fullUrl": "Observation/21ff8c7f0809cd611a3da02eb3b428f4c0227edab64ea9ebebdfb180b49cb9c1",
    "resource": {
      "resourceType": "Observation",
      "id": "21ff8c7f0809cd611a3da02eb3b428f4c0227edab64ea9ebebdfb180b49cb9c1",
      "meta": {
        "profile": [ "https://www.medizininformatik-initiative.de/fhir/ext/modul-onko/StructureDefinition/mii-pr-onko-tnm-m-symbol" ]
      },
      "identifier": [ {
        "system": "https://bzkf.github.io/obds-to-fhir/identifiers/tnm-m-symbol-observation-id",
        "value": "483-2020-03-05-m"
      } ],
      "status": "final",
      "code": {
        "coding": [ {
          "system": "http://loinc.org",
          "version": "2.80",
          "code": "42030-7",
          "display": "Multiple tumors reported as single primary Cancer"
        } ]
      },
      "subject": {
        "reference": "Patient/a02e16474896f1d528cac71f2c9b4c45ac3c9028e3a53fb414a1f7882991ee07"
      },
      "focus": [ {
        "reference": "Condition/528cbfb627eff7b031c902f2a97d149f5640d57a28f705fadba22462aae7c408"
      } ],
      "effectiveDateTime": "2020-03-05",
      "valueCodeableConcept": {
        "coding": [ {
          "system": "https://www.uicc.org/resources/tnm",
          "code": "3"
        } ]
      },
      "method": {
        "coding": [ {
          "system": "https://www.medizininformatik-initiative.de/fhir/ext/modul-onko/CodeSystem/mii-cs-onko-tnm-version",
          "code": "8"
        } ]
      }
    },
    "request": {
      "method": "PUT",
      "url": "Observation/21ff8c7f0809cd611a3da02eb3b428f4c0227edab64ea9ebebdfb180b49cb9c1"
    }
  }, {
    "fullUrl": "Observation/9a019dffff6fecca9b603cca140882b0e5dd86e4df203edfb879dece003b592a",
    "resource": {
      "resourceType": "Observation",
      "id": "9a019dffff6fecca9b603cca140882b0e5dd86e4df203edfb879dece003b592a",
      "meta": {
        "profile": [ "https://www.medizininformatik-initiative.de/fhir/ext/modul-onko/StructureDefinition/mii-pr-onko-tnm-l-kategorie" ]
      },
      "identifier": [ {
        "system": "https://bzkf.github.io/obds-to-fhir/identifiers/tnm-l-kategorie-observation-id",
        "value": "483-2020-03-05-L"
      } ],
      "status": "final",
      "code": {
        "coding": [ {
          "system": "http://snomed.info/sct",
          "version": "http://snomed.info/sct/900000000000207008/version/20250501",
          "code": "395715009",
          "display": "Status of lymphatic (small vessel) invasion by tumor (observable entity)"
        } ]
      },
      "subject": {
        "reference": "Patient/a02e16474896f1d528cac71f2c9b4c45ac3c9028e3a53fb414a1f7882991ee07"
      },
      "focus": [ {
        "reference": "Condition/528cbfb627eff7b031c902f2a97d149f5640d57a28f705fadba22462aae7c408"
      } ],
      "effectiveDateTime": "2020-03-05",
      "valueCodeableConcept": {
        "coding": [ {
          "system": "https://www.uicc.org/resources/tnm",
          "code": "L0"
        } ]
      },
      "method": {
        "coding": [ {
          "system": "https://www.medizininformatik-initiative.de/fhir/ext/modul-onko/CodeSystem/mii-cs-onko-tnm-version",
          "code": "8"
        } ]
      }
    },
    "request": {
      "method": "PUT",
      "url": "Observation/9a019dffff6fecca9b603cca140882b0e5dd86e4df203edfb879dece003b592a"
    }
  }, {
    "fullUrl": "Observation/eff03980cfcaefc574206a1ec99629a9a6522e0401d047c88c91d850f994d4bc",
    "resource": {
      "resourceType": "Observation",
      "id": "eff03980cfcaefc574206a1ec99629a9a6522e0401d047c88c91d850f994d4bc",
      "meta": {
        "profile": [ "https://www.medizininformatik-initiative.de/fhir/ext/modul-onko/StructureDefinition/mii-pr-onko-tnm-pn-kategorie" ]
      },
      "identifier": [ {
        "system": "https://bzkf.github.io/obds-to-fhir/identifiers/tnm-pn-kategorie-observation-id",
        "value": "483-2020-03-05-Pn"
      } ],
      "status": "final",
      "code": {
        "coding": [ {
          "system": "http://snomed.info/sct",
          "version": "http://snomed.info/sct/900000000000207008/version/20250501",
          "code": "371513001",
          "display": "Presence of direct invasion by primary malignant neoplasm to nerve (observable entity)"
        } ]
      },
      "subject": {
        "reference": "Patient/a02e16474896f1d528cac71f2c9b4c45ac3c9028e3a53fb414a1f7882991ee07"
      },
      "focus": [ {
        "reference": "Condition/528cbfb627eff7b031c902f2a97d149f5640d57a28f705fadba22462aae7c408"
      } ],
      "effectiveDateTime": "2020-03-05",
      "valueCodeableConcept": {
        "coding": [ {
          "system": "https://www.uicc.org/resources/tnm",
          "code": "Pn0"
        } ]
      },
      "method": {
        "coding": [ {
          "system": "https://www.medizininformatik-initiative.de/fhir/ext/modul-onko/CodeSystem/mii-cs-onko-tnm-version",
          "code": "8"
        } ]
      }
    },
    "request": {
      "method": "PUT",
      "url": "Observation/eff03980cfcaefc574206a1ec99629a9a6522e0401d047c88c91d850f994d4bc"
    }
  }, {
    "fullUrl": "Observation/b5b67ee8cab7f9f0552862dfff54ed7b2bf7f022b170e214d69c670be5c08d5d",
    "resource": {
      "resourceType": "Observation",
      "id": "b5b67ee8cab7f9f0552862dfff54ed7b2bf7f022b170e214d69c670be5c08d5d",
      "meta": {
        "profile": [ "https://www.medizininformatik-initiative.de/fhir/ext/modul-onko/StructureDefinition/mii-pr-onko-tnm-v-kategorie" ]
      },
      "identifier": [ {
        "system": "https://bzkf.github.io/obds-to-fhir/identifiers/tnm-v-kategorie-observation-id",
        "value": "483-2020-03-05-V"
      } ],
      "status": "final",
      "code": {
        "coding": [ {
          "system": "http://snomed.info/sct",
          "version": "http://snomed.info/sct/900000000000207008/version/20250501",
          "code": "371493002",
          "display": "Status of venous (large vessel) invasion by tumor (observable entity)"
        } ]
      },
      "subject": {
        "reference": "Patient/a02e16474896f1d528cac71f2c9b4c45ac3c9028e3a53fb414a1f7882991ee07"
      },
      "focus": [ {
        "reference": "Condition/528cbfb627eff7b031c902f2a97d149f5640d57a28f705fadba22462aae7c408"
      } ],
      "effectiveDateTime": "2020-03-05",
      "valueCodeableConcept": {
        "coding": [ {
          "system": "https://www.uicc.org/resources/tnm",
          "code": "V0"
        } ]
      },
      "method": {
        "coding": [ {
          "system": "https://www.medizininformatik-initiative.de/fhir/ext/modul-onko/CodeSystem/mii-cs-onko-tnm-version",
          "code": "8"
        } ]
      }
    },
    "request": {
      "method": "PUT",
      "url": "Observation/b5b67ee8cab7f9f0552862dfff54ed7b2bf7f022b170e214d69c670be5c08d5d"
    }
  }, {
    "fullUrl": "Observation/af70018eafa9839849b92e3afa4e5054ebcf6212f756a9a63eaa8704fa64fc54",
    "resource": {
      "resourceType": "Observation",
      "id": "af70018eafa9839849b92e3afa4e5054ebcf6212f756a9a63eaa8704fa64fc54",
      "meta": {
        "profile": [ "https://www.medizininformatik-initiative.de/fhir/ext/modul-onko/StructureDefinition/mii-pr-onko-tnm-klassifikation" ]
      },
      "identifier": [ {
        "system": "https://bzkf.github.io/obds-to-fhir/identifiers/tnm-grouping-observation-id",
        "value": "483-2020-03-05"
      } ],
      "status": "final",
      "code": {
        "coding": [ {
          "system": "http://snomed.info/sct",
          "version": "http://snomed.info/sct/900000000000207008/version/20250501",
          "code": "399390009",
          "display": "TNM stage grouping"
        } ]
      },
      "subject": {
        "reference": "Patient/a02e16474896f1d528cac71f2c9b4c45ac3c9028e3a53fb414a1f7882991ee07"
      },
      "focus": [ {
        "reference": "Condition/528cbfb627eff7b031c902f2a97d149f5640d57a28f705fadba22462aae7c408"
      } ],
      "effectiveDateTime": "2020-03-05",
      "valueCodeableConcept": {
        "coding": [ {
          "system": "https://www.uicc.org/resources/tnm",
          "code": "IV",
          "display": "Stadium IV"
        } ]
      },
      "method": {
        "coding": [ {
          "system": "https://www.medizininformatik-initiative.de/fhir/ext/modul-onko/CodeSystem/mii-cs-onko-tnm-version",
          "code": "8"
        } ]
      },
      "hasMember": [ {
        "reference": "Observation/ce2ab793058d0d1d720f72408157051b44cf298ba10acda86e9cfc4468c599c8"
      }, {
        "reference": "Observation/b32453f7a774d398ab9b6fb4359a0d5aa7b381fad89a3cb5519d0562d8f962f2"
      }, {
        "reference": "Observation/76d65485d80344aa09b4bf451874e1e2bb0bb8f562b58def45e5bc206ae385f4"
      }, {
        "reference": "Observation/21ff8c7f0809cd611a3da02eb3b428f4c0227edab64ea9ebebdfb180b49cb9c1"
      }, {
        "reference": "Observation/9a019dffff6fecca9b603cca140882b0e5dd86e4df203edfb879dece003b592a"
      }, {
        "reference": "Observation/eff03980cfcaefc574206a1ec99629a9a6522e0401d047c88c91d850f994d4bc"
      }, {
        "reference": "Observation/b5b67ee8cab7f9f0552862dfff54ed7b2bf7f022b170e214d69c670be5c08d5d"
      } ]
    },
    "request": {
      "method": "PUT",
      "url": "Observation/af70018eafa9839849b92e3afa4e5054ebcf6212f756a9a63eaa8704fa64fc54"
    }
  }, {
    "fullUrl": "Observation/9e62e963fe7db78a3925d720c66f66de6674abdfe535f6c08b5a4a9ef5379743",
    "resource": {
      "resourceType": "Observation",
      "id": "9e62e963fe7db78a3925d720c66f66de6674abdfe535f6c08b5a4a9ef5379743",
      "meta": {
        "profile": [ "https://www.medizininformatik-initiative.de/fhir/ext/modul-onko/StructureDefinition/mii-pr-onko-verlauf" ]
      },
      "identifier": [ {
        "system": "https://bzkf.github.io/obds-to-fhir/identifiers/verlauf-observation-id",
        "value": "342"
      } ],
      "status": "final",
      "code": {
        "coding": [ {
          "system": "http://snomed.info/sct",
          "version": "http://snomed.info/sct/900000000000207008/version/20250501",
          "code": "396432002",
          "display": "Status of regression of tumor (observable entity)"
        } ]
      },
      "subject": {
        "reference": "Patient/a02e16474896f1d528cac71f2c9b4c45ac3c9028e3a53fb414a1f7882991ee07"
      },
      "focus": [ {
        "reference": "Condition/528cbfb627eff7b031c902f2a97d149f5640d57a28f705fadba22462aae7c408"
      } ],
      "effectiveDateTime": "2021-12-02",
      "valueCodeableConcept": {
        "coding": [ {
          "system": "https://www.medizininformatik-initiative.de/fhir/ext/modul-onko/CodeSystem/mii-cs-onko-verlauf-gesamtbeurteilung",
          "code": "K",
          "display": "keine Änderung"
        } ]
      },
      "component": [ {
        "code": {
          "coding": [ {
            "system": "http://snomed.info/sct",
            "version": "http://snomed.info/sct/900000000000207008/version/20250501",
            "code": "277062004",
            "display": "Status des Residualtumors"
          } ]
        },
        "valueCodeableConcept": {
          "coding": [ {
            "system": "https://www.medizininformatik-initiative.de/fhir/ext/modul-onko/CodeSystem/mii-cs-onko-verlauf-primaertumor",
            "code": "N",
            "display": "Tumorreste (Residualtumor) No Change"
          } ]
        }
      }, {
        "code": {
          "coding": [ {
            "system": "http://snomed.info/sct",
            "version": "http://snomed.info/sct/900000000000207008/version/20250501",
            "code": "399656008",
            "display": "Status of tumor metastasis to regional lymph nodes (observable entity)"
          } ]
        },
        "valueCodeableConcept": {
          "coding": [ {
            "system": "https://www.medizininformatik-initiative.de/fhir/ext/modul-onko/CodeSystem/mii-cs-onko-verlauf-lymphknoten",
            "code": "N",
            "display": "bekannter Lymphknotenbefall No Change"
          } ]
        }
      }, {
        "code": {
          "coding": [ {
            "system": "http://snomed.info/sct",
            "version": "http://snomed.info/sct/900000000000207008/version/20250501",
            "code": "399608002",
            "display": "Status of distant metastasis (observable entity)"
          } ]
        },
        "valueCodeableConcept": {
          "coding": [ {
            "system": "https://www.medizininformatik-initiative.de/fhir/ext/modul-onko/CodeSystem/mii-cs-onko-verlauf-fernmetastasen",
            "code": "X",
            "display": "fehlende Angabe"
          } ]
        }
      } ]
    },
    "request": {
      "method": "PUT",
      "url": "Observation/9e62e963fe7db78a3925d720c66f66de6674abdfe535f6c08b5a4a9ef5379743"
    }
  }, {
    "fullUrl": "Observation/571d00c58bfaa0b922814f1f2bfb644f5b7788958b4cdb9e5b00e802fb5135ad",
    "resource": {
      "resourceType": "Observation",
      "id": "571d00c58bfaa0b922814f1f2bfb644f5b7788958b4cdb9e5b00e802fb5135ad",
      "meta": {
        "profile": [ "https://www.medizininformatik-initiative.de/fhir/ext/modul-onko/StructureDefinition/mii-pr-onko-allgemeiner-leistungszustand-ecog" ]
      },
      "identifier": [ {
        "system": "https://bzkf.github.io/obds-to-fhir/identifiers/allgemeiner-leistungszustand-ecog-id",
        "value": "ECOG-10_1_VE-2"
      } ],
      "status": "final",
      "code": {
        "coding": [ {
          "system": "http://snomed.info/sct",
          "version": "http://snomed.info/sct/900000000000207008/version/20250501",
          "code": "423740007",
          "display": "Eastern Cooperative Oncology Group performance status (observable entity)"
        } ]
      },
      "subject": {
        "reference": "Patient/a02e16474896f1d528cac71f2c9b4c45ac3c9028e3a53fb414a1f7882991ee07"
      },
      "focus": [ {
        "reference": "Condition/528cbfb627eff7b031c902f2a97d149f5640d57a28f705fadba22462aae7c408"
      } ],
      "effectiveDateTime": "2021-12-02",
      "valueCodeableConcept": {
        "coding": [ {
          "system": "https://www.medizininformatik-initiative.de/fhir/ext/modul-onko/CodeSystem/mii-cs-onko-allgemeiner-leistungszustand-ecog",
          "code": "4",
          "display": "Völlig pflegebedürftig, keinerlei Selbstversorgung möglich; völlig an Bett oder Stuhl gebunden (10 - 20 % nach Karnofsky)"
        } ]
      }
    },
    "request": {
      "method": "PUT",
      "url": "Observation/571d00c58bfaa0b922814f1f2bfb644f5b7788958b4cdb9e5b00e802fb5135ad"
    }
  }, {
    "fullUrl": "Observation/e28521d56d64d352b2399cd15a6fd19af5e9e5bd11339cfe1bb228d89907b9d4",
    "resource": {
      "resourceType": "Observation",
      "id": "e28521d56d64d352b2399cd15a6fd19af5e9e5bd11339cfe1bb228d89907b9d4",
      "meta": {
        "profile": [ "https://www.medizininformatik-initiative.de/fhir/ext/modul-onko/StructureDefinition/mii-pr-onko-tod" ]
      },
      "identifier": [ {
        "system": "https://bzkf.github.io/obds-to-fhir/identifiers/tod-observation-id",
        "value": "161-C50-9"
      } ],
      "status": "final",
      "code": {
        "coding": [ {
          "system": "http://snomed.info/sct",
          "version": "http://snomed.info/sct/900000000000207008/version/20250501",
          "code": "184305005",
          "display": "Cause of death (observable entity)"
        } ]
      },
      "subject": {
        "reference": "Patient/a02e16474896f1d528cac71f2c9b4c45ac3c9028e3a53fb414a1f7882991ee07"
      },
      "focus": [ {
        "reference": "Condition/528cbfb627eff7b031c902f2a97d149f5640d57a28f705fadba22462aae7c408"
      } ],
      "effectiveDateTime": "2022-08-01",
      "valueCodeableConcept": {
        "coding": [ {
          "system": "http://fhir.de/CodeSystem/bfarm/icd-10-gm",
          "version": "2020",
          "code": "C50.9"
        } ]
      },
      "interpretation": [ {
        "coding": [ {
          "system": "https://www.medizininformatik-initiative.de/fhir/ext/modul-onko/CodeSystem/mii-cs-onko-tod",
          "code": "J"
        } ]
      } ]
    },
    "request": {
      "method": "PUT",
      "url": "Observation/e28521d56d64d352b2399cd15a6fd19af5e9e5bd11339cfe1bb228d89907b9d4"
    }
  }, {
    "fullUrl": "Observation/ebe0468d56dc7c9aa380db860cc772c847f58c082eef47450652571a31093aef",
    "resource": {
      "resourceType": "Observation",
      "id": "ebe0468d56dc7c9aa380db860cc772c847f58c082eef47450652571a31093aef",
      "meta": {
        "profile": [ "https://www.medizininformatik-initiative.de/fhir/ext/modul-onko/StructureDefinition/mii-pr-onko-tod" ]
      },
      "identifier": [ {
        "system": "https://bzkf.github.io/obds-to-fhir/identifiers/tod-observation-id",
        "value": "161-T57-3"
      } ],
      "status": "final",
      "code": {
        "coding": [ {
          "system": "http://snomed.info/sct",
          "version": "http://snomed.info/sct/900000000000207008/version/20250501",
          "code": "184305005",
          "display": "Cause of death (observable entity)"
        } ]
      },
      "subject": {
        "reference": "Patient/a02e16474896f1d528cac71f2c9b4c45ac3c9028e3a53fb414a1f7882991ee07"
      },
      "focus": [ {
        "reference": "Condition/528cbfb627eff7b031c902f2a97d149f5640d57a28f705fadba22462aae7c408"
      } ],
      "effectiveDateTime": "2022-08-01",
      "valueCodeableConcept": {
        "coding": [ {
          "system": "http://fhir.de/CodeSystem/bfarm/icd-10-gm",
          "version": "2020",
          "code": "T57.3"
        } ]
      },
      "interpretation": [ {
        "coding": [ {
          "system": "https://www.medizininformatik-initiative.de/fhir/ext/modul-onko/CodeSystem/mii-cs-onko-tod",
          "code": "J"
        } ]
      } ]
    },
    "request": {
      "method": "PUT",
      "url": "Observation/ebe0468d56dc7c9aa380db860cc772c847f58c082eef47450652571a31093aef"
    }
  }, {
    "fullUrl": "Condition/dec60bae0a707f01b77ab2ef8f22d53d4b352636c9cf80b1081ad6aa1252cb1d",
    "resource": {
      "resourceType": "Condition",
      "id": "dec60bae0a707f01b77ab2ef8f22d53d4b352636c9cf80b1081ad6aa1252cb1d",
      "meta": {
        "profile": [ "https://www.medizininformatik-initiative.de/fhir/ext/modul-onko/StructureDefinition/mii-pr-onko-diagnose-primaertumor" ]
      },
      "extension": [ {
        "url": "https://www.medizininformatik-initiative.de/fhir/ext/modul-onko/StructureDefinition/mii-ex-onko-histology-morphology-behavior-icdo3",
        "valueCodeableConcept": {
          "coding": [ {
            "system": "http://terminology.hl7.org/CodeSystem/icd-o-3",
            "version": "33",
            "code": "8010/3"
          } ]
        }
      }, {
        "url": "http://hl7.org/fhir/StructureDefinition/condition-assertedDate",
        "valueDateTime": "2020-01-01"
      } ],
      "identifier": [ {
        "system": "https://bzkf.github.io/obds-to-fhir/identifiers/primaerdiagnose-condition-id",
        "value": "10-102"
      } ],
      "verificationStatus": {
        "coding": [ {
          "system": "http://terminology.hl7.org/CodeSystem/condition-ver-status",
          "code": "confirmed"
        }, {
          "system": "https://www.medizininformatik-initiative.de/fhir/ext/modul-onko/CodeSystem/mii-cs-onko-primaertumor-diagnosesicherung",
          "code": "7"
        } ]
      },
      "code": {
        "coding": [ {
          "system": "http://fhir.de/CodeSystem/bfarm/icd-10-gm",
          "version": "2020",
          "code": "C20"
        } ]
      },
      "bodySite": [ {
        "coding": [ {
          "system": "http://terminology.hl7.org/CodeSystem/icd-o-3",
          "version": "33",
          "code": "C20.9"
        } ],
        "text": "Rektum"
      }, {
        "coding": [ {
          "system": "https://www.medizininformatik-initiative.de/fhir/ext/modul-onko/CodeSystem/mii-cs-onko-seitenlokalisation",
          "code": "T"
        }, {
          "system": "http://snomed.info/sct",
          "version": "http://snomed.info/sct/900000000000207008/version/20250501",
          "code": "385432009",
          "display": "Not applicable (qualifier value)"
        } ]
      } ],
      "subject": {
        "reference": "Patient/a02e16474896f1d528cac71f2c9b4c45ac3c9028e3a53fb414a1f7882991ee07"
      },
      "recordedDate": "2024-09-19",
      "evidence": [ {
        "detail": [ {
          "reference": "List/e5e5552bba684d718c523f91780048c6e7851a3948985fcac56ef6781bca1700"
        } ]
      } ]
    },
    "request": {
      "method": "PUT",
      "url": "Condition/dec60bae0a707f01b77ab2ef8f22d53d4b352636c9cf80b1081ad6aa1252cb1d"
    }
  }, {
    "fullUrl": "Procedure/51890ce8d550a0880571a89cc2901ce59a55153b2f75458cd389de61c3ded359",
    "resource": {
      "resourceType": "Procedure",
      "id": "51890ce8d550a0880571a89cc2901ce59a55153b2f75458cd389de61c3ded359",
      "meta": {
        "profile": [ "https://www.medizininformatik-initiative.de/fhir/ext/modul-onko/StructureDefinition/mii-pr-onko-operation" ]
      },
      "extension": [ {
        "url": "https://www.medizininformatik-initiative.de/fhir/ext/modul-onko/StructureDefinition/mii-ex-onko-operation-intention",
        "valueCodeableConcept": {
          "coding": [ {
            "system": "https://www.medizininformatik-initiative.de/fhir/ext/modul-onko/CodeSystem/mii-cs-onko-intention",
            "code": "K"
          } ]
        }
      } ],
      "identifier": [ {
        "system": "https://bzkf.github.io/obds-to-fhir/identifiers/operation-procedure-id",
        "value": "302-5-484-55"
      } ],
      "status": "completed",
      "category": {
        "coding": [ {
          "system": "http://snomed.info/sct",
          "version": "http://snomed.info/sct/900000000000207008/version/20250501",
          "code": "387713003",
          "display": "Surgical procedure"
        } ]
      },
      "code": {
        "coding": [ {
          "system": "http://fhir.de/CodeSystem/bfarm/ops",
          "version": "2020",
          "code": "5-484.55"
        } ]
      },
      "subject": {
        "reference": "Patient/a02e16474896f1d528cac71f2c9b4c45ac3c9028e3a53fb414a1f7882991ee07"
      },
      "performedDateTime": "2020-02-01",
      "reasonReference": [ {
        "reference": "Condition/dec60bae0a707f01b77ab2ef8f22d53d4b352636c9cf80b1081ad6aa1252cb1d"
      } ],
      "outcome": {
        "coding": [ {
          "system": "https://www.medizininformatik-initiative.de/fhir/ext/modul-onko/CodeSystem/mii-cs-onko-residualstatus",
          "code": "R0"
        } ]
      }
    },
    "request": {
      "method": "PUT",
      "url": "Procedure/51890ce8d550a0880571a89cc2901ce59a55153b2f75458cd389de61c3ded359"
    }
  }, {
    "fullUrl": "Observation/fbe8bd4ee5604df9f3149618851a9935bbee3e95bc4cdeac769ab12fff143e2f",
    "resource": {
      "resourceType": "Observation",
      "id": "fbe8bd4ee5604df9f3149618851a9935bbee3e95bc4cdeac769ab12fff143e2f",
      "identifier": [ {
        "system": "https://bzkf.github.io/obds-to-fhir/identifiers/residualstatus-observation-id",
        "value": "302"
      } ],
      "status": "final",
      "code": {
        "coding": [ {
          "system": "http://loinc.org",
          "version": "2.80",
          "code": "84892-9",
          "display": "Residual tumor classification [Type] in Cancer specimen"
        } ]
      },
      "subject": {
        "reference": "Patient/a02e16474896f1d528cac71f2c9b4c45ac3c9028e3a53fb414a1f7882991ee07"
      },
      "focus": [ {
        "reference": "Condition/dec60bae0a707f01b77ab2ef8f22d53d4b352636c9cf80b1081ad6aa1252cb1d"
      } ],
      "effectiveDateTime": "2020-02-01",
      "valueCodeableConcept": {
        "coding": [ {
          "system": "https://www.medizininformatik-initiative.de/fhir/ext/modul-onko/CodeSystem/mii-cs-onko-residualstatus",
          "code": "R2"
        } ]
      }
    },
    "request": {
      "method": "PUT",
      "url": "Observation/fbe8bd4ee5604df9f3149618851a9935bbee3e95bc4cdeac769ab12fff143e2f"
    }
  }, {
    "fullUrl": "Observation/645af9bc96c3b7fc37e1302fb97b5e405a75c99fb161aa44dc2cd1a5626d3c65",
    "resource": {
      "resourceType": "Observation",
      "id": "645af9bc96c3b7fc37e1302fb97b5e405a75c99fb161aa44dc2cd1a5626d3c65",
      "meta": {
        "profile": [ "https://www.medizininformatik-initiative.de/fhir/ext/modul-onko/StructureDefinition/mii-pr-onko-tnm-t-kategorie" ]
      },
      "identifier": [ {
        "system": "https://bzkf.github.io/obds-to-fhir/identifiers/tnm-t-kategorie-observation-id",
        "value": "485-2020-02-01-T"
      } ],
      "status": "final",
      "code": {
        "extension": [ {
          "url": "https://www.medizininformatik-initiative.de/fhir/ext/modul-onko/StructureDefinition/mii-ex-onko-tnm-cp-praefix",
          "valueCodeableConcept": {
            "coding": [ {
              "system": "https://www.uicc.org/resources/tnm",
              "code": "p"
            } ]
          }
        } ],
        "coding": [ {
          "system": "http://snomed.info/sct",
          "version": "http://snomed.info/sct/900000000000207008/version/20250501",
          "code": "384625004",
          "display": "pT category (observable entity)"
        } ]
      },
      "subject": {
        "reference": "Patient/a02e16474896f1d528cac71f2c9b4c45ac3c9028e3a53fb414a1f7882991ee07"
      },
      "focus": [ {
        "reference": "Condition/dec60bae0a707f01b77ab2ef8f22d53d4b352636c9cf80b1081ad6aa1252cb1d"
      } ],
      "effectiveDateTime": "2020-02-01",
      "valueCodeableConcept": {
        "coding": [ {
          "system": "https://www.uicc.org/resources/tnm",
          "code": "T1"
        } ]
      },
      "method": {
        "coding": [ {
          "system": "https://www.medizininformatik-initiative.de/fhir/ext/modul-onko/CodeSystem/mii-cs-onko-tnm-version",
          "code": "8"
        } ]
      }
    },
    "request": {
      "method": "PUT",
      "url": "Observation/645af9bc96c3b7fc37e1302fb97b5e405a75c99fb161aa44dc2cd1a5626d3c65"
    }
  }, {
    "fullUrl": "Observation/5b693d87de990442dbddaf941d2f1713b85efe14a7e2f871e033f74e752eb838",
    "resource": {
      "resourceType": "Observation",
      "id": "5b693d87de990442dbddaf941d2f1713b85efe14a7e2f871e033f74e752eb838",
      "meta": {
        "profile": [ "https://www.medizininformatik-initiative.de/fhir/ext/modul-onko/StructureDefinition/mii-pr-onko-tnm-y-symbol" ]
      },
      "identifier": [ {
        "system": "https://bzkf.github.io/obds-to-fhir/identifiers/tnm-y-symbol-observation-id",
        "value": "485-2020-02-01-y"
      } ],
      "status": "final",
      "code": {
        "coding": [ {
          "system": "http://loinc.org",
          "version": "2.80",
          "code": "101658-3",
          "display": "Cancer staging after multimodality therapy"
        } ]
      },
      "subject": {
        "reference": "Patient/a02e16474896f1d528cac71f2c9b4c45ac3c9028e3a53fb414a1f7882991ee07"
      },
      "focus": [ {
        "reference": "Condition/dec60bae0a707f01b77ab2ef8f22d53d4b352636c9cf80b1081ad6aa1252cb1d"
      } ],
      "effectiveDateTime": "2020-02-01",
      "valueCodeableConcept": {
        "coding": [ {
          "system": "http://snomed.info/sct",
          "version": "http://snomed.info/sct/900000000000207008/version/20250501",
          "code": "421755005",
          "display": "Tumor staging descriptor y (tumor staging)"
        } ]
      },
      "method": {
        "coding": [ {
          "system": "https://www.medizininformatik-initiative.de/fhir/ext/modul-onko/CodeSystem/mii-cs-onko-tnm-version",
          "code": "8"
        } ]
      }
    },
    "request": {
      "method": "PUT",
      "url": "Observation/5b693d87de990442dbddaf941d2f1713b85efe14a7e2f871e033f74e752eb838"
    }
  }, {
    "fullUrl": "Observation/7047672adbfb44a5ec693caa9587fed5fe593800ac6419f399563ac1886623f8",
    "resource": {
      "resourceType": "Observation",
      "id": "7047672adbfb44a5ec693caa9587fed5fe593800ac6419f399563ac1886623f8",
      "meta": {
        "profile": [ "https://www.medizininformatik-initiative.de/fhir/ext/modul-onko/StructureDefinition/mii-pr-onko-tnm-klassifikation" ]
      },
      "identifier": [ {
        "system": "https://bzkf.github.io/obds-to-fhir/identifiers/tnm-grouping-observation-id",
        "value": "485-2020-02-01"
      } ],
      "status": "final",
      "code": {
        "coding": [ {
          "system": "http://snomed.info/sct",
          "version": "http://snomed.info/sct/900000000000207008/version/20250501",
          "code": "399390009",
          "display": "TNM stage grouping"
        } ]
      },
      "subject": {
        "reference": "Patient/a02e16474896f1d528cac71f2c9b4c45ac3c9028e3a53fb414a1f7882991ee07"
      },
      "focus": [ {
        "reference": "Condition/dec60bae0a707f01b77ab2ef8f22d53d4b352636c9cf80b1081ad6aa1252cb1d"
      } ],
      "effectiveDateTime": "2020-02-01",
      "method": {
        "coding": [ {
          "system": "https://www.medizininformatik-initiative.de/fhir/ext/modul-onko/CodeSystem/mii-cs-onko-tnm-version",
          "code": "8"
        } ]
      },
      "hasMember": [ {
        "reference": "Observation/645af9bc96c3b7fc37e1302fb97b5e405a75c99fb161aa44dc2cd1a5626d3c65"
      }, {
        "reference": "Observation/5b693d87de990442dbddaf941d2f1713b85efe14a7e2f871e033f74e752eb838"
      } ]
    },
    "request": {
      "method": "PUT",
      "url": "Observation/7047672adbfb44a5ec693caa9587fed5fe593800ac6419f399563ac1886623f8"
    }
  }, {
    "fullUrl": "Condition/778f6d2023c112c28f7c0aaa0bb7693aa3c5b16f87093a7d52f647c7388d4285",
    "resource": {
      "resourceType": "Condition",
      "id": "778f6d2023c112c28f7c0aaa0bb7693aa3c5b16f87093a7d52f647c7388d4285",
      "meta": {
        "profile": [ "https://www.medizininformatik-initiative.de/fhir/ext/modul-onko/StructureDefinition/mii-pr-onko-diagnose-primaertumor" ]
      },
      "extension": [ {
        "url": "https://www.medizininformatik-initiative.de/fhir/ext/modul-onko/StructureDefinition/mii-ex-onko-histology-morphology-behavior-icdo3",
        "valueCodeableConcept": {
          "coding": [ {
            "system": "http://terminology.hl7.org/CodeSystem/icd-o-3",
            "version": "33",
            "code": "8720/3"
          } ]
        }
      }, {
        "url": "http://hl7.org/fhir/StructureDefinition/condition-assertedDate",
        "valueDateTime": "2020-03-01"
      } ],
      "identifier": [ {
        "system": "https://bzkf.github.io/obds-to-fhir/identifiers/primaerdiagnose-condition-id",
        "value": "10-103"
      } ],
      "verificationStatus": {
        "coding": [ {
          "system": "http://terminology.hl7.org/CodeSystem/condition-ver-status",
          "code": "confirmed"
        }, {
          "system": "https://www.medizininformatik-initiative.de/fhir/ext/modul-onko/CodeSystem/mii-cs-onko-primaertumor-diagnosesicherung",
          "code": "7"
        } ]
      },
      "code": {
        "coding": [ {
          "system": "http://fhir.de/CodeSystem/bfarm/icd-10-gm",
          "version": "2020",
          "code": "C43.5"
        } ]
      },
      "bodySite": [ {
        "coding": [ {
          "system": "http://terminology.hl7.org/CodeSystem/icd-o-3",
          "version": "33",
          "code": "C44.5"
        } ],
        "text": "Rumpf"
      }, {
        "coding": [ {
          "system": "https://www.medizininformatik-initiative.de/fhir/ext/modul-onko/CodeSystem/mii-cs-onko-seitenlokalisation",
          "code": "T"
        }, {
          "system": "http://snomed.info/sct",
          "version": "http://snomed.info/sct/900000000000207008/version/20250501",
          "code": "385432009",
          "display": "Not applicable (qualifier value)"
        } ]
      } ],
      "subject": {
        "reference": "Patient/a02e16474896f1d528cac71f2c9b4c45ac3c9028e3a53fb414a1f7882991ee07"
      },
      "recordedDate": "2024-09-19",
      "evidence": [ {
        "detail": [ {
          "reference": "List/2787b4369f4673eeaca5c83bd437fb4fac191101a2abd54fd04c061d575124ff"
        } ]
      } ]
    },
    "request": {
      "method": "PUT",
      "url": "Condition/778f6d2023c112c28f7c0aaa0bb7693aa3c5b16f87093a7d52f647c7388d4285"
    }
  }, {
    "fullUrl": "Procedure/d384c76caaba134f7c500069474843e53f9fd0ae52f8bebd4bd30e03fc831a56",
    "resource": {
      "resourceType": "Procedure",
      "id": "d384c76caaba134f7c500069474843e53f9fd0ae52f8bebd4bd30e03fc831a56",
      "meta": {
        "profile": [ "https://www.medizininformatik-initiative.de/fhir/ext/modul-onko/StructureDefinition/mii-pr-onko-operation" ]
      },
      "extension": [ {
        "url": "https://www.medizininformatik-initiative.de/fhir/ext/modul-onko/StructureDefinition/mii-ex-onko-operation-intention",
        "valueCodeableConcept": {
          "coding": [ {
            "system": "https://www.medizininformatik-initiative.de/fhir/ext/modul-onko/CodeSystem/mii-cs-onko-intention",
            "code": "K"
          } ]
        }
      } ],
      "identifier": [ {
        "system": "https://bzkf.github.io/obds-to-fhir/identifiers/operation-procedure-id",
        "value": "303-5-894-1"
      } ],
      "status": "completed",
      "category": {
        "coding": [ {
          "system": "http://snomed.info/sct",
          "version": "http://snomed.info/sct/900000000000207008/version/20250501",
          "code": "387713003",
          "display": "Surgical procedure"
        } ]
      },
      "code": {
        "coding": [ {
          "system": "http://fhir.de/CodeSystem/bfarm/ops",
          "version": "2021",
          "code": "5-894.1"
        } ]
      },
      "subject": {
        "reference": "Patient/a02e16474896f1d528cac71f2c9b4c45ac3c9028e3a53fb414a1f7882991ee07"
      },
      "performedDateTime": "2021-12-20",
      "reasonReference": [ {
        "reference": "Condition/778f6d2023c112c28f7c0aaa0bb7693aa3c5b16f87093a7d52f647c7388d4285"
      } ],
      "outcome": {
        "coding": [ {
          "system": "https://www.medizininformatik-initiative.de/fhir/ext/modul-onko/CodeSystem/mii-cs-onko-residualstatus",
          "code": "R0"
        } ]
      }
    },
    "request": {
      "method": "PUT",
      "url": "Procedure/d384c76caaba134f7c500069474843e53f9fd0ae52f8bebd4bd30e03fc831a56"
    }
  }, {
    "fullUrl": "Observation/820a4d15bc65ede836e0b68922b75855e9ab63f2ce4b33c39e8796096107b357",
    "resource": {
      "resourceType": "Observation",
      "id": "820a4d15bc65ede836e0b68922b75855e9ab63f2ce4b33c39e8796096107b357",
      "identifier": [ {
        "system": "https://bzkf.github.io/obds-to-fhir/identifiers/residualstatus-observation-id",
        "value": "303"
      } ],
      "status": "final",
      "code": {
        "coding": [ {
          "system": "http://loinc.org",
          "version": "2.80",
          "code": "84892-9",
          "display": "Residual tumor classification [Type] in Cancer specimen"
        } ]
      },
      "subject": {
        "reference": "Patient/a02e16474896f1d528cac71f2c9b4c45ac3c9028e3a53fb414a1f7882991ee07"
      },
      "focus": [ {
        "reference": "Condition/778f6d2023c112c28f7c0aaa0bb7693aa3c5b16f87093a7d52f647c7388d4285"
      } ],
      "effectiveDateTime": "2021-12-20",
      "valueCodeableConcept": {
        "coding": [ {
          "system": "https://www.medizininformatik-initiative.de/fhir/ext/modul-onko/CodeSystem/mii-cs-onko-residualstatus",
          "code": "R2"
        } ]
      }
    },
    "request": {
      "method": "PUT",
      "url": "Observation/820a4d15bc65ede836e0b68922b75855e9ab63f2ce4b33c39e8796096107b357"
    }
  }, {
    "fullUrl": "Procedure/bfc5c7a0c00d1c00e9ab41a4507f8cfbbc87e13953eba89e14c3fe3a54325559",
    "resource": {
      "resourceType": "Procedure",
      "id": "bfc5c7a0c00d1c00e9ab41a4507f8cfbbc87e13953eba89e14c3fe3a54325559",
      "meta": {
        "profile": [ "https://www.medizininformatik-initiative.de/fhir/ext/modul-onko/StructureDefinition/mii-pr-onko-strahlentherapie" ]
      },
      "extension": [ {
        "url": "https://www.medizininformatik-initiative.de/fhir/ext/modul-onko/StructureDefinition/mii-ex-onko-strahlentherapie-intention",
        "valueCodeableConcept": {
          "coding": [ {
            "system": "https://www.medizininformatik-initiative.de/fhir/ext/modul-onko/CodeSystem/mii-cs-onko-intention",
            "code": "K"
          } ]
        }
      }, {
        "url": "https://www.medizininformatik-initiative.de/fhir/ext/modul-onko/StructureDefinition/mii-ex-onko-strahlentherapie-stellungzurop",
        "valueCodeableConcept": {
          "coding": [ {
            "system": "https://www.medizininformatik-initiative.de/fhir/ext/modul-onko/CodeSystem/mii-cs-therapie-stellungzurop",
            "code": "S"
          } ]
        }
      } ],
      "identifier": [ {
        "system": "https://bzkf.github.io/obds-to-fhir/identifiers/strahlentherapie-procedure-id",
        "value": "101_ST-2"
      } ],
      "status": "completed",
      "category": {
        "coding": [ {
          "system": "http://snomed.info/sct",
          "version": "http://snomed.info/sct/900000000000207008/version/20250501",
          "code": "1287742003",
          "display": "Radiotherapy (procedure)"
        } ]
      },
      "code": {
        "coding": [ {
          "system": "http://fhir.de/CodeSystem/bfarm/ops",
          "version": "2025",
          "code": "8-52",
          "display": "Strahlentherapie"
        } ]
      },
      "subject": {
        "reference": "Patient/a02e16474896f1d528cac71f2c9b4c45ac3c9028e3a53fb414a1f7882991ee07"
      },
      "performedPeriod": {
        "start": "2020-03-10",
        "end": "2020-03-20"
      },
      "reasonReference": [ {
        "reference": "Condition/528cbfb627eff7b031c902f2a97d149f5640d57a28f705fadba22462aae7c408"
      } ],
      "outcome": {
        "coding": [ {
          "system": "https://www.medizininformatik-initiative.de/fhir/ext/modul-onko/CodeSystem/mii-cs-therapie-grund-ende",
          "code": "E"
        } ]
      }
    },
    "request": {
      "method": "PUT",
      "url": "Procedure/bfc5c7a0c00d1c00e9ab41a4507f8cfbbc87e13953eba89e14c3fe3a54325559"
    }
  }, {
    "fullUrl": "Procedure/c27e7388fd50f8dc36cea18c9cd4bf7b69adfeb98d133fca334633ff428199de",
    "resource": {
      "resourceType": "Procedure",
      "id": "c27e7388fd50f8dc36cea18c9cd4bf7b69adfeb98d133fca334633ff428199de",
      "meta": {
        "profile": [ "https://www.medizininformatik-initiative.de/fhir/ext/modul-onko/StructureDefinition/mii-pr-onko-strahlentherapie-bestrahlung-strahlentherapie" ]
      },
      "extension": [ {
        "url": "https://www.medizininformatik-initiative.de/fhir/ext/modul-onko/StructureDefinition/mii-ex-onko-strahlentherapie-bestrahlung-gesamtdosis",
        "valueQuantity": {
          "value": 30.3,
          "unit": "Gy",
          "system": "http://unitsofmeasure.org",
          "code": "Gy"
        }
      }, {
        "url": "https://www.medizininformatik-initiative.de/fhir/ext/modul-onko/StructureDefinition/mii-ex-onko-strahlentherapie-bestrahlung-einzeldosis",
        "valueQuantity": {
          "value": 5.8,
          "unit": "Gy",
          "system": "http://unitsofmeasure.org",
          "code": "Gy"
        }
      }, {
        "url": "https://www.medizininformatik-initiative.de/fhir/ext/modul-onko/StructureDefinition/mii-ex-onko-strahlentherapie-bestrahlung-boost",
        "valueCodeableConcept": {
          "coding": [ {
            "system": "https://www.medizininformatik-initiative.de/fhir/ext/modul-onko/CodeSystem/mii-cs-onko-strahlentherapie-boost",
            "code": "KON"
          } ]
        }
      } ],
      "identifier": [ {
        "system": "https://bzkf.github.io/obds-to-fhir/identifiers/strahlentherapie-bestrahlung-procedure-id",
        "value": "101_ST-2-0"
      } ],
      "partOf": [ {
        "reference": "Procedure/bfc5c7a0c00d1c00e9ab41a4507f8cfbbc87e13953eba89e14c3fe3a54325559"
      } ],
      "status": "completed",
      "category": {
        "coding": [ {
          "system": "http://snomed.info/sct",
          "version": "http://snomed.info/sct/900000000000207008/version/20250501",
          "code": "1287742003",
          "display": "Radiotherapy (procedure)"
        } ]
      },
      "code": {
        "coding": [ {
          "system": "http://fhir.de/CodeSystem/bfarm/ops",
          "version": "2025",
          "code": "8-52",
          "display": "Strahlentherapie"
        } ]
      },
      "subject": {
        "reference": "Patient/a02e16474896f1d528cac71f2c9b4c45ac3c9028e3a53fb414a1f7882991ee07"
      },
      "performedPeriod": {
        "start": "2020-03-10",
        "end": "2020-03-20"
      },
      "bodySite": [ {
        "extension": [ {
          "url": "https://www.medizininformatik-initiative.de/fhir/ext/modul-onko/StructureDefinition/mii-ex-onko-strahlentherapie-bestrahlung-seitenlokalisation",
          "valueCodeableConcept": {
            "coding": [ {
              "system": "https://www.medizininformatik-initiative.de/fhir/ext/modul-onko/CodeSystem/mii-cs-onko-seitenlokalisation",
              "code": "U"
            } ]
          }
        } ],
        "coding": [ {
          "system": "https://www.medizininformatik-initiative.de/fhir/ext/modul-onko/CodeSystem/mii-cs-onko-strahlentherapie-zielgebiet",
          "code": "3.1.-"
        } ]
      } ],
      "usedCode": [ {
        "coding": [ {
          "system": "https://www.medizininformatik-initiative.de/fhir/ext/modul-onko/CodeSystem/mii-cs-onko-strahlentherapie-strahlenart",
          "code": "Co-60"
        } ]
      }, {
        "coding": [ {
          "system": "https://www.medizininformatik-initiative.de/fhir/ext/modul-onko/CodeSystem/mii-cs-onko-strahlentherapie-applikationsart",
          "code": "PRCN-ST4D"
        } ]
      } ]
    },
    "request": {
      "method": "PUT",
      "url": "Procedure/c27e7388fd50f8dc36cea18c9cd4bf7b69adfeb98d133fca334633ff428199de"
    }
  }, {
    "fullUrl": "Procedure/b93ec958bca3fd61dd5939be3c12d044a2e224a7372af25041865250dd98493d",
    "resource": {
      "resourceType": "Procedure",
      "id": "b93ec958bca3fd61dd5939be3c12d044a2e224a7372af25041865250dd98493d",
      "meta": {
        "profile": [ "https://www.medizininformatik-initiative.de/fhir/ext/modul-onko/StructureDefinition/mii-pr-onko-strahlentherapie-bestrahlung-strahlentherapie" ]
      },
      "extension": [ {
        "url": "https://www.medizininformatik-initiative.de/fhir/ext/modul-onko/StructureDefinition/mii-ex-onko-strahlentherapie-bestrahlung-gesamtdosis",
        "valueQuantity": {
          "value": 30,
          "unit": "Gy",
          "system": "http://unitsofmeasure.org",
          "code": "Gy"
        }
      }, {
        "url": "https://www.medizininformatik-initiative.de/fhir/ext/modul-onko/StructureDefinition/mii-ex-onko-strahlentherapie-bestrahlung-einzeldosis",
        "valueQuantity": {
          "value": 5,
          "unit": "Gy",
          "system": "http://unitsofmeasure.org",
          "code": "Gy"
        }
      }, {
        "url": "https://www.medizininformatik-initiative.de/fhir/ext/modul-onko/StructureDefinition/mii-ex-onko-strahlentherapie-bestrahlung-boost",
        "valueCodeableConcept": {
          "coding": [ {
            "system": "https://www.medizininformatik-initiative.de/fhir/ext/modul-onko/CodeSystem/mii-cs-onko-strahlentherapie-boost",
            "code": "N"
          } ]
        }
      } ],
      "identifier": [ {
        "system": "https://bzkf.github.io/obds-to-fhir/identifiers/strahlentherapie-bestrahlung-procedure-id",
        "value": "101_ST-2-1"
      } ],
      "partOf": [ {
        "reference": "Procedure/bfc5c7a0c00d1c00e9ab41a4507f8cfbbc87e13953eba89e14c3fe3a54325559"
      } ],
      "status": "completed",
      "category": {
        "coding": [ {
          "system": "http://snomed.info/sct",
          "version": "http://snomed.info/sct/900000000000207008/version/20250501",
          "code": "1287742003",
          "display": "Radiotherapy (procedure)"
        } ]
      },
      "code": {
        "coding": [ {
          "system": "http://fhir.de/CodeSystem/bfarm/ops",
          "version": "2025",
          "code": "8-52",
          "display": "Strahlentherapie"
        } ]
      },
      "subject": {
        "reference": "Patient/a02e16474896f1d528cac71f2c9b4c45ac3c9028e3a53fb414a1f7882991ee07"
      },
      "performedPeriod": {
        "start": "2020-03-10",
        "end": "2020-03-20"
      },
      "bodySite": [ {
        "extension": [ {
          "url": "https://www.medizininformatik-initiative.de/fhir/ext/modul-onko/StructureDefinition/mii-ex-onko-strahlentherapie-bestrahlung-seitenlokalisation",
          "valueCodeableConcept": {
            "coding": [ {
              "system": "https://www.medizininformatik-initiative.de/fhir/ext/modul-onko/CodeSystem/mii-cs-onko-seitenlokalisation",
              "code": "L"
            } ]
          }
        } ],
        "coding": [ {
          "system": "https://www.medizininformatik-initiative.de/fhir/ext/modul-onko/CodeSystem/mii-cs-onko-strahlentherapie-zielgebiet",
          "code": "6.10"
        } ]
      } ],
      "usedCode": [ {
        "coding": [ {
          "system": "https://www.medizininformatik-initiative.de/fhir/ext/modul-onko/CodeSystem/mii-cs-onko-strahlentherapie-strahlenart",
          "code": "SO"
        } ]
      }, {
        "coding": [ {
          "system": "https://www.medizininformatik-initiative.de/fhir/ext/modul-onko/CodeSystem/mii-cs-onko-strahlentherapie-applikationsart",
          "code": "IHDR"
        } ]
      } ]
    },
    "request": {
      "method": "PUT",
      "url": "Procedure/b93ec958bca3fd61dd5939be3c12d044a2e224a7372af25041865250dd98493d"
    }
  }, {
    "fullUrl": "Procedure/68cc6dd03306fd9703859bd165a85477bea8daf5bcccc755d096c65f608c4feb",
    "resource": {
      "resourceType": "Procedure",
      "id": "68cc6dd03306fd9703859bd165a85477bea8daf5bcccc755d096c65f608c4feb",
      "meta": {
        "profile": [ "https://www.medizininformatik-initiative.de/fhir/ext/modul-onko/StructureDefinition/mii-pr-onko-strahlentherapie-bestrahlung-nuklearmedizin" ]
      },
      "extension": [ {
        "url": "https://www.medizininformatik-initiative.de/fhir/ext/modul-onko/StructureDefinition/mii-ex-onko-strahlentherapie-bestrahlung-einzeldosis",
        "valueQuantity": {
          "value": 20,
          "unit": "GBq",
          "system": "http://unitsofmeasure.org",
          "code": "GBq"
        }
      }, {
        "url": "https://www.medizininformatik-initiative.de/fhir/ext/modul-onko/StructureDefinition/mii-ex-onko-strahlentherapie-bestrahlung-gesamtdosis",
        "valueQuantity": {
          "value": 20,
          "unit": "GBq",
          "system": "http://unitsofmeasure.org",
          "code": "GBq"
        }
      } ],
      "identifier": [ {
        "system": "https://bzkf.github.io/obds-to-fhir/identifiers/strahlentherapie-bestrahlung-procedure-id",
        "value": "101_ST-2-2"
      } ],
      "partOf": [ {
        "reference": "Procedure/bfc5c7a0c00d1c00e9ab41a4507f8cfbbc87e13953eba89e14c3fe3a54325559"
      } ],
      "status": "completed",
      "category": {
        "coding": [ {
          "system": "http://snomed.info/sct",
          "version": "http://snomed.info/sct/900000000000207008/version/20250501",
          "code": "399315003",
          "display": "Radionuclide therapy"
        } ]
      },
      "code": {
        "coding": [ {
          "system": "http://fhir.de/CodeSystem/bfarm/ops",
          "version": "2025",
          "code": "8-53",
          "display": "Nuklearmedizinische Therapie"
        } ]
      },
      "subject": {
        "reference": "Patient/a02e16474896f1d528cac71f2c9b4c45ac3c9028e3a53fb414a1f7882991ee07"
      },
      "performedPeriod": {
        "start": "2020-03-10",
        "end": "2020-03-10"
      },
      "bodySite": [ {
        "extension": [ {
          "url": "https://www.medizininformatik-initiative.de/fhir/ext/modul-onko/StructureDefinition/mii-ex-onko-strahlentherapie-bestrahlung-seitenlokalisation",
          "valueCodeableConcept": {
            "coding": [ {
              "system": "https://www.medizininformatik-initiative.de/fhir/ext/modul-onko/CodeSystem/mii-cs-onko-seitenlokalisation",
              "code": "U"
            } ]
          }
        } ],
        "coding": [ {
          "system": "https://www.medizininformatik-initiative.de/fhir/ext/modul-onko/CodeSystem/mii-cs-onko-strahlentherapie-zielgebiet",
          "code": "7.+"
        } ]
      } ],
      "usedCode": [ {
        "coding": [ {
          "system": "https://www.medizininformatik-initiative.de/fhir/ext/modul-onko/CodeSystem/mii-cs-onko-strahlentherapie-strahlenart",
          "code": "Y-90"
        } ]
      }, {
        "coding": [ {
          "system": "https://www.medizininformatik-initiative.de/fhir/ext/modul-onko/CodeSystem/mii-cs-onko-strahlentherapie-applikationsart",
          "code": "MPRRT"
        } ]
      } ]
    },
    "request": {
      "method": "PUT",
      "url": "Procedure/68cc6dd03306fd9703859bd165a85477bea8daf5bcccc755d096c65f608c4feb"
    }
  }, {
    "fullUrl": "Procedure/979e2b28475d07be69ca72da10f7aa7a7837101d2ccd80dee2e8a362f5b846d5",
    "resource": {
      "resourceType": "Procedure",
      "id": "979e2b28475d07be69ca72da10f7aa7a7837101d2ccd80dee2e8a362f5b846d5",
      "meta": {
        "profile": [ "https://www.medizininformatik-initiative.de/fhir/ext/modul-onko/StructureDefinition/mii-pr-onko-strahlentherapie-bestrahlung-strahlentherapie" ]
      },
      "extension": [ {
        "url": "https://www.medizininformatik-initiative.de/fhir/ext/modul-onko/StructureDefinition/mii-ex-onko-strahlentherapie-bestrahlung-gesamtdosis",
        "valueQuantity": {
          "value": 10.5,
          "unit": "Gy",
          "system": "http://unitsofmeasure.org",
          "code": "Gy"
        }
      }, {
        "url": "https://www.medizininformatik-initiative.de/fhir/ext/modul-onko/StructureDefinition/mii-ex-onko-strahlentherapie-bestrahlung-einzeldosis",
        "valueQuantity": {
          "value": 1.1,
          "unit": "Gy",
          "system": "http://unitsofmeasure.org",
          "code": "Gy"
        }
      } ],
      "identifier": [ {
        "system": "https://bzkf.github.io/obds-to-fhir/identifiers/strahlentherapie-bestrahlung-procedure-id",
        "value": "101_ST-2-3"
      } ],
      "partOf": [ {
        "reference": "Procedure/bfc5c7a0c00d1c00e9ab41a4507f8cfbbc87e13953eba89e14c3fe3a54325559"
      } ],
      "status": "completed",
      "category": {
        "coding": [ {
          "system": "http://snomed.info/sct",
          "version": "http://snomed.info/sct/900000000000207008/version/20250501",
          "code": "1287742003",
          "display": "Radiotherapy (procedure)"
        } ]
      },
      "code": {
        "coding": [ {
          "system": "http://fhir.de/CodeSystem/bfarm/ops",
          "version": "2025",
          "code": "8-52",
          "display": "Strahlentherapie"
        } ]
      },
      "subject": {
        "reference": "Patient/a02e16474896f1d528cac71f2c9b4c45ac3c9028e3a53fb414a1f7882991ee07"
      },
      "performedPeriod": {
        "start": "2020-03-10",
        "end": "2020-03-20"
      },
      "bodySite": [ {
        "extension": [ {
          "url": "https://www.medizininformatik-initiative.de/fhir/ext/modul-onko/StructureDefinition/mii-ex-onko-strahlentherapie-bestrahlung-seitenlokalisation",
          "valueCodeableConcept": {
            "coding": [ {
              "system": "https://www.medizininformatik-initiative.de/fhir/ext/modul-onko/CodeSystem/mii-cs-onko-seitenlokalisation",
              "code": "B"
            } ]
          }
        } ],
        "coding": [ {
          "system": "https://www.medizininformatik-initiative.de/fhir/ext/modul-onko/CodeSystem/mii-cs-onko-strahlentherapie-zielgebiet",
          "code": "6.16"
        } ]
      } ],
      "usedCode": [ {
        "coding": [ {
          "system": "https://www.medizininformatik-initiative.de/fhir/ext/modul-onko/CodeSystem/mii-cs-onko-strahlentherapie-applikationsart",
          "code": "S"
        } ]
      } ]
    },
    "request": {
      "method": "PUT",
      "url": "Procedure/979e2b28475d07be69ca72da10f7aa7a7837101d2ccd80dee2e8a362f5b846d5"
    }
  }, {
    "fullUrl": "AdverseEvent/9509de77033bbee2f5578cb7aa765bdf4c18129f5b14cc88fea0e5bf1c83298a",
    "resource": {
      "resourceType": "AdverseEvent",
      "id": "9509de77033bbee2f5578cb7aa765bdf4c18129f5b14cc88fea0e5bf1c83298a",
      "meta": {
        "profile": [ "https://www.medizininformatik-initiative.de/fhir/ext/modul-onko/StructureDefinition/mii-pr-onko-nebenwirkung-adverse-event" ]
      },
      "identifier": {
        "system": "https://bzkf.github.io/obds-to-fhir/identifiers/nebenwirkung-adverse-event-id",
        "value": "mii-pr-onko-nebenwirkung-101_ST-2-0"
      },
      "actuality": "actual",
      "event": {
        "coding": [ {
          "system": "https://www.meddra.org",
          "version": "5.0",
          "code": "26356258"
        } ]
      },
      "subject": {
        "reference": "Patient/a02e16474896f1d528cac71f2c9b4c45ac3c9028e3a53fb414a1f7882991ee07"
      },
      "seriousness": {
        "coding": [ {
          "system": "https://www.medizininformatik-initiative.de/fhir/ext/modul-onko/CodeSystem/mii-cs-onko-nebenwirkung-ctcae-grad",
          "code": "3"
        } ]
      },
      "suspectEntity": [ {
        "instance": {
          "reference": "Procedure/bfc5c7a0c00d1c00e9ab41a4507f8cfbbc87e13953eba89e14c3fe3a54325559"
        }
      } ]
    },
    "request": {
      "method": "PUT",
      "url": "AdverseEvent/9509de77033bbee2f5578cb7aa765bdf4c18129f5b14cc88fea0e5bf1c83298a"
    }
  }, {
    "fullUrl": "Procedure/8e5a61d808bb30074e894fc702086b24763c410267b91c86f75de0b3b6507ccf",
    "resource": {
      "resourceType": "Procedure",
      "id": "8e5a61d808bb30074e894fc702086b24763c410267b91c86f75de0b3b6507ccf",
      "meta": {
        "profile": [ "https://www.medizininformatik-initiative.de/fhir/ext/modul-onko/StructureDefinition/mii-pr-onko-systemische-therapie" ]
      },
      "extension": [ {
        "url": "https://www.medizininformatik-initiative.de/fhir/ext/modul-onko/StructureDefinition/mii-ex-onko-systemische-therapie-intention",
        "valueCodeableConcept": {
          "coding": [ {
            "system": "https://www.medizininformatik-initiative.de/fhir/ext/modul-onko/CodeSystem/mii-cs-onko-intention",
            "code": "P"
          } ]
        }
      }, {
        "url": "https://www.medizininformatik-initiative.de/fhir/ext/modul-onko/StructureDefinition/mii-ex-onko-strahlentherapie-stellungzurop",
        "valueCodeableConcept": {
          "coding": [ {
            "system": "https://www.medizininformatik-initiative.de/fhir/ext/modul-onko/CodeSystem/mii-cs-therapie-stellungzurop",
            "code": "S"
          } ]
        }
      } ],
      "identifier": [ {
        "system": "https://bzkf.github.io/obds-to-fhir/identifiers/systemische-therapie-procedure-id",
        "value": "101_IN-1"
      } ],
      "status": "completed",
      "category": {
        "coding": [ {
          "system": "http://snomed.info/sct",
          "version": "http://snomed.info/sct/900000000000207008/version/20250501",
          "code": "18629005",
          "display": "Administration of drug or medicament (procedure)"
        } ]
      },
      "code": {
        "coding": [ {
          "system": "http://fhir.de/CodeSystem/bfarm/ops",
          "version": "2025",
          "code": "8-54",
          "display": "Zytostatische Chemotherapie, Immuntherapie und antiretrovirale Therapie"
        }, {
          "system": "https://www.medizininformatik-initiative.de/fhir/ext/modul-onko/CodeSystem/mii-cs-onko-therapie-typ",
          "code": "IM"
        } ],
        "text": "Atezolizumab Immuntherapie"
      },
      "subject": {
        "reference": "Patient/a02e16474896f1d528cac71f2c9b4c45ac3c9028e3a53fb414a1f7882991ee07"
      },
      "performedPeriod": {
        "start": "2020-05",
        "end": "2020-10-15"
      },
      "outcome": {
        "coding": [ {
          "system": "https://www.medizininformatik-initiative.de/fhir/ext/modul-onko/CodeSystem/mii-cs-therapie-grund-ende",
          "code": "V"
        } ]
      }
    },
    "request": {
      "method": "PUT",
      "url": "Procedure/8e5a61d808bb30074e894fc702086b24763c410267b91c86f75de0b3b6507ccf"
    }
  }, {
    "fullUrl": "MedicationStatement/41659d329e36cce9d00a37cbe22aded15fd20293fe5712095db45e6c73708965",
    "resource": {
      "resourceType": "MedicationStatement",
      "id": "41659d329e36cce9d00a37cbe22aded15fd20293fe5712095db45e6c73708965",
      "meta": {
        "profile": [ "https://www.medizininformatik-initiative.de/fhir/ext/modul-onko/StructureDefinition/mii-pr-onko-systemische-therapie-medikation" ]
      },
      "identifier": [ {
        "system": "https://bzkf.github.io/obds-to-fhir/identifiers/systemische-therapie-medication-statement-id",
        "value": "101_IN-1-L01FF05"
      } ],
      "partOf": [ {
        "reference": "Procedure/8e5a61d808bb30074e894fc702086b24763c410267b91c86f75de0b3b6507ccf"
      } ],
      "status": "completed",
      "medicationCodeableConcept": {
        "coding": [ {
          "system": "http://fhir.de/CodeSystem/bfarm/atc",
          "code": "L02BB04"
        } ],
        "text": "Enzalutamid"
      },
      "subject": {
        "reference": "Patient/a02e16474896f1d528cac71f2c9b4c45ac3c9028e3a53fb414a1f7882991ee07"
      },
      "effectivePeriod": {
        "start": "2020-05",
        "end": "2020-10-15"
      },
      "reasonReference": [ {
        "reference": "Condition/528cbfb627eff7b031c902f2a97d149f5640d57a28f705fadba22462aae7c408"
      } ]
    },
    "request": {
      "method": "PUT",
      "url": "MedicationStatement/41659d329e36cce9d00a37cbe22aded15fd20293fe5712095db45e6c73708965"
    }
  }, {
    "fullUrl": "AdverseEvent/9eefba6a73667c8e8eae98bf8bfc392d328655d334c739ed2fa74ab6b04ca957",
    "resource": {
      "resourceType": "AdverseEvent",
      "id": "9eefba6a73667c8e8eae98bf8bfc392d328655d334c739ed2fa74ab6b04ca957",
      "meta": {
        "profile": [ "https://www.medizininformatik-initiative.de/fhir/ext/modul-onko/StructureDefinition/mii-pr-onko-nebenwirkung-adverse-event" ]
      },
      "identifier": {
        "system": "https://bzkf.github.io/obds-to-fhir/identifiers/nebenwirkung-adverse-event-id",
        "value": "mii-pr-onko-nebenwirkung-101_IN-1-0"
      },
      "actuality": "actual",
      "event": {
        "extension": [ {
          "url": "http://hl7.org/fhir/StructureDefinition/data-absent-reason",
          "valueCode": "unknown"
        } ],
        "text": "Schüttelfrost"
      },
      "subject": {
        "reference": "Patient/a02e16474896f1d528cac71f2c9b4c45ac3c9028e3a53fb414a1f7882991ee07"
      },
      "seriousness": {
        "coding": [ {
          "system": "https://www.medizininformatik-initiative.de/fhir/ext/modul-onko/CodeSystem/mii-cs-onko-nebenwirkung-ctcae-grad",
          "code": "5"
        } ]
      },
      "suspectEntity": [ {
        "instance": {
          "reference": "Procedure/8e5a61d808bb30074e894fc702086b24763c410267b91c86f75de0b3b6507ccf"
        }
      } ]
    },
    "request": {
      "method": "PUT",
      "url": "AdverseEvent/9eefba6a73667c8e8eae98bf8bfc392d328655d334c739ed2fa74ab6b04ca957"
    }
  }, {
    "fullUrl": "CarePlan/4c9ff87c9a1f31f39a0fcb197d426adda086aa14d5314c25c50e2b7feb2221da",
    "resource": {
      "resourceType": "CarePlan",
      "id": "4c9ff87c9a1f31f39a0fcb197d426adda086aa14d5314c25c50e2b7feb2221da",
      "meta": {
        "profile": [ "https://www.medizininformatik-initiative.de/fhir/ext/modul-onko/StructureDefinition/mii-pr-onko-tumorkonferenz" ]
      },
      "identifier": [ {
        "system": "https://bzkf.github.io/obds-to-fhir/identifiers/tumorkonferenz-care-plan-id",
        "value": "Tumorkonferenz-221"
      } ],
      "status": "completed",
      "intent": "plan",
      "category": [ {
        "coding": [ {
          "system": "https://www.medizininformatik-initiative.de/fhir/ext/modul-onko/CodeSystem/mii-cs-onko-therapieplanung-typ",
          "code": "postth"
        } ]
      } ],
      "subject": {
        "reference": "Patient/a02e16474896f1d528cac71f2c9b4c45ac3c9028e3a53fb414a1f7882991ee07"
      },
      "created": "2020-10-20",
      "addresses": [ {
        "reference": "Condition/528cbfb627eff7b031c902f2a97d149f5640d57a28f705fadba22462aae7c408"
      } ],
      "activity": [ {
        "detail": {
          "code": {
            "coding": [ {
              "system": "https://www.medizininformatik-initiative.de/fhir/ext/modul-onko/CodeSystem/mii-cs-onko-therapie-typ",
              "code": "CH"
            } ]
          },
          "status": "cancelled",
          "statusReason": {
            "coding": [ {
              "system": "https://www.medizininformatik-initiative.de/fhir/ext/modul-onko/CodeSystem/mii-cs-onko-therapieabweichung",
              "code": "J"
            } ]
          }
        }
      } ]
    },
    "request": {
      "method": "PUT",
      "url": "CarePlan/4c9ff87c9a1f31f39a0fcb197d426adda086aa14d5314c25c50e2b7feb2221da"
    }
  }, {
    "fullUrl": "Observation/fd48174ae15c6e75acac1468c04191577bb263cbb2f7e467742c83c54b799081",
    "resource": {
      "resourceType": "Observation",
      "id": "fd48174ae15c6e75acac1468c04191577bb263cbb2f7e467742c83c54b799081",
      "meta": {
        "profile": [ "https://www.medizininformatik-initiative.de/fhir/ext/modul-onko/StructureDefinition/mii-pr-onko-verlauf" ]
      },
      "identifier": [ {
        "system": "https://bzkf.github.io/obds-to-fhir/identifiers/verlauf-observation-id",
        "value": "341"
      } ],
      "status": "final",
      "code": {
        "coding": [ {
          "system": "http://snomed.info/sct",
          "version": "http://snomed.info/sct/900000000000207008/version/20250501",
          "code": "396432002",
          "display": "Status of regression of tumor (observable entity)"
        } ]
      },
      "subject": {
        "reference": "Patient/a02e16474896f1d528cac71f2c9b4c45ac3c9028e3a53fb414a1f7882991ee07"
      },
      "focus": [ {
        "reference": "Condition/528cbfb627eff7b031c902f2a97d149f5640d57a28f705fadba22462aae7c408"
      } ],
      "effectiveDateTime": "2021-06-01",
      "valueCodeableConcept": {
        "coding": [ {
          "system": "https://www.medizininformatik-initiative.de/fhir/ext/modul-onko/CodeSystem/mii-cs-onko-verlauf-gesamtbeurteilung",
          "code": "Y",
          "display": "Rezidiv"
        } ]
      },
      "component": [ {
        "code": {
          "coding": [ {
            "system": "http://snomed.info/sct",
            "version": "http://snomed.info/sct/900000000000207008/version/20250501",
            "code": "277062004",
            "display": "Status des Residualtumors"
          } ]
        },
        "valueCodeableConcept": {
          "coding": [ {
            "system": "https://www.medizininformatik-initiative.de/fhir/ext/modul-onko/CodeSystem/mii-cs-onko-verlauf-primaertumor",
            "code": "R",
            "display": "Lokalrezidiv"
          } ]
        }
      }, {
        "code": {
          "coding": [ {
            "system": "http://snomed.info/sct",
            "version": "http://snomed.info/sct/900000000000207008/version/20250501",
            "code": "399656008",
            "display": "Status of tumor metastasis to regional lymph nodes (observable entity)"
          } ]
        },
        "valueCodeableConcept": {
          "coding": [ {
            "system": "https://www.medizininformatik-initiative.de/fhir/ext/modul-onko/CodeSystem/mii-cs-onko-verlauf-lymphknoten",
            "code": "R",
            "display": "neu aufgetretenes Lymphknotenrezidiv"
          } ]
        }
      }, {
        "code": {
          "coding": [ {
            "system": "http://snomed.info/sct",
            "version": "http://snomed.info/sct/900000000000207008/version/20250501",
            "code": "399608002",
            "display": "Status of distant metastasis (observable entity)"
          } ]
        },
        "valueCodeableConcept": {
          "coding": [ {
            "system": "https://www.medizininformatik-initiative.de/fhir/ext/modul-onko/CodeSystem/mii-cs-onko-verlauf-fernmetastasen",
            "code": "R",
            "display": "neu aufgetretene Fernmetastase(n) bzw. Metastasenrezidiv"
          } ]
        }
      } ]
    },
    "request": {
      "method": "PUT",
      "url": "Observation/fd48174ae15c6e75acac1468c04191577bb263cbb2f7e467742c83c54b799081"
    }
  }, {
    "fullUrl": "Observation/ddbc380f1daef8dfac48e0cfea3a6c594bf1354ffdbb7a71eae13ab27e9b39ca",
    "resource": {
      "resourceType": "Observation",
      "id": "ddbc380f1daef8dfac48e0cfea3a6c594bf1354ffdbb7a71eae13ab27e9b39ca",
      "meta": {
        "profile": [ "https://www.medizininformatik-initiative.de/fhir/ext/modul-onko/StructureDefinition/mii-pr-onko-fernmetastasen" ]
      },
      "identifier": [ {
        "system": "https://bzkf.github.io/obds-to-fhir/identifiers/fernmetastasen-id",
        "value": "10_1_VE-1-Verlauf-0"
      } ],
      "status": "final",
      "code": {
        "coding": [ {
          "system": "http://snomed.info/sct",
          "version": "http://snomed.info/sct/900000000000207008/version/20250501",
          "code": "385421009",
          "display": "Anatomic location of metastatic spread of malignant neoplasm (observable entity)"
        } ]
      },
      "subject": {
        "reference": "Patient/a02e16474896f1d528cac71f2c9b4c45ac3c9028e3a53fb414a1f7882991ee07"
      },
      "focus": [ {
        "reference": "Condition/528cbfb627eff7b031c902f2a97d149f5640d57a28f705fadba22462aae7c408"
      } ],
      "effectiveDateTime": "2021-06-01",
      "valueCodeableConcept": {
        "coding": [ {
          "system": "https://www.medizininformatik-initiative.de/fhir/ext/modul-onko/CodeSystem/mii-cs-onko-fernmetastasen",
          "code": "BRA"
        } ]
      }
    },
    "request": {
      "method": "PUT",
      "url": "Observation/ddbc380f1daef8dfac48e0cfea3a6c594bf1354ffdbb7a71eae13ab27e9b39ca"
    }
  }, {
    "fullUrl": "Observation/1b8cbcab8427f3d4b77c4814ec9e7aa065916dc5734f77115fccbf4cdcd44a2b",
    "resource": {
      "resourceType": "Observation",
      "id": "1b8cbcab8427f3d4b77c4814ec9e7aa065916dc5734f77115fccbf4cdcd44a2b",
      "meta": {
        "profile": [ "https://www.medizininformatik-initiative.de/fhir/ext/modul-onko/StructureDefinition/mii-pr-onko-allgemeiner-leistungszustand-ecog" ]
      },
      "identifier": [ {
        "system": "https://bzkf.github.io/obds-to-fhir/identifiers/allgemeiner-leistungszustand-ecog-id",
        "value": "ECOG-10_1_VE-1"
      } ],
      "status": "final",
      "code": {
        "coding": [ {
          "system": "http://snomed.info/sct",
          "version": "http://snomed.info/sct/900000000000207008/version/20250501",
          "code": "423740007",
          "display": "Eastern Cooperative Oncology Group performance status (observable entity)"
        } ]
      },
      "subject": {
        "reference": "Patient/a02e16474896f1d528cac71f2c9b4c45ac3c9028e3a53fb414a1f7882991ee07"
      },
      "focus": [ {
        "reference": "Condition/528cbfb627eff7b031c902f2a97d149f5640d57a28f705fadba22462aae7c408"
      } ],
      "effectiveDateTime": "2021-06-01",
      "valueCodeableConcept": {
        "coding": [ {
          "system": "https://www.medizininformatik-initiative.de/fhir/ext/modul-onko/CodeSystem/mii-cs-onko-allgemeiner-leistungszustand-ecog",
          "code": "4",
          "display": "Völlig pflegebedürftig, keinerlei Selbstversorgung möglich; völlig an Bett oder Stuhl gebunden (10 - 20 % nach Karnofsky)"
        } ]
      }
    },
    "request": {
      "method": "PUT",
      "url": "Observation/1b8cbcab8427f3d4b77c4814ec9e7aa065916dc5734f77115fccbf4cdcd44a2b"
    }
  }, {
    "fullUrl": "Specimen/dbaa556b11c59ff24efb94a652a9574e63de84b972e2caa8bf60b3d8e4ada2fb",
    "resource": {
      "resourceType": "Specimen",
      "id": "dbaa556b11c59ff24efb94a652a9574e63de84b972e2caa8bf60b3d8e4ada2fb",
      "meta": {
        "profile": [ "https://www.medizininformatik-initiative.de/fhir/ext/modul-onko/StructureDefinition/mii-pr-onko-specimen" ]
      },
      "identifier": [ {
        "system": "https://bzkf.github.io/obds-to-fhir/identifiers/histologie-specimen-id",
        "value": "523"
      } ],
      "accessionIdentifier": {
        "value": "X/654987/1"
      },
      "subject": {
        "reference": "Patient/a02e16474896f1d528cac71f2c9b4c45ac3c9028e3a53fb414a1f7882991ee07"
      },
      "collection": {
        "collectedDateTime": "2021-06-01"
      }
    },
    "request": {
      "method": "PUT",
      "url": "Specimen/dbaa556b11c59ff24efb94a652a9574e63de84b972e2caa8bf60b3d8e4ada2fb"
    }
  }, {
    "fullUrl": "Observation/3622dbc23fd755d9693f6150efda2e131269310dc495105d4568bfd4caf80b3c",
    "resource": {
      "resourceType": "Observation",
      "id": "3622dbc23fd755d9693f6150efda2e131269310dc495105d4568bfd4caf80b3c",
      "meta": {
        "profile": [ "https://www.medizininformatik-initiative.de/fhir/ext/modul-onko/StructureDefinition/mii-pr-onko-histologie-icdo3" ]
      },
      "identifier": [ {
        "system": "https://bzkf.github.io/obds-to-fhir/identifiers/verlaufshistologie-observation-id",
        "value": "523-ICDO3-8010-3"
      } ],
      "status": "final",
      "code": {
        "coding": [ {
          "system": "http://loinc.org",
          "version": "2.80",
          "code": "59847-4",
          "display": "Histology and Behavior ICD-O-3 Cancer"
        } ]
      },
      "subject": {
        "reference": "Patient/a02e16474896f1d528cac71f2c9b4c45ac3c9028e3a53fb414a1f7882991ee07"
      },
      "focus": [ {
        "reference": "Condition/528cbfb627eff7b031c902f2a97d149f5640d57a28f705fadba22462aae7c408"
      } ],
      "effectiveDateTime": "2021-06-01",
      "valueCodeableConcept": {
        "coding": [ {
          "system": "http://terminology.hl7.org/CodeSystem/icd-o-3",
          "version": "33",
          "code": "8010/3"
        } ],
        "text": "Karzinom o.n.A."
      },
      "specimen": {
        "reference": "Specimen/dbaa556b11c59ff24efb94a652a9574e63de84b972e2caa8bf60b3d8e4ada2fb"
      }
    },
    "request": {
      "method": "PUT",
      "url": "Observation/3622dbc23fd755d9693f6150efda2e131269310dc495105d4568bfd4caf80b3c"
    }
  }, {
    "fullUrl": "Observation/054c6f48e9e36f31d41a4f28976fc3d047d11cd42ac74dd04281dd6844a77746",
    "resource": {
      "resourceType": "Observation",
      "id": "054c6f48e9e36f31d41a4f28976fc3d047d11cd42ac74dd04281dd6844a77746",
      "meta": {
        "profile": [ "https://www.medizininformatik-initiative.de/fhir/ext/modul-onko/StructureDefinition/mii-pr-onko-grading" ]
      },
      "identifier": [ {
        "system": "https://bzkf.github.io/obds-to-fhir/identifiers/grading-observation-id",
        "value": "523-grading"
      } ],
      "status": "final",
      "category": [ {
        "coding": [ {
          "system": "http://terminology.hl7.org/CodeSystem/observation-category",
          "code": "laboratory"
        } ]
      } ],
      "code": {
        "coding": [ {
          "system": "http://loinc.org",
          "version": "2.80",
          "code": "33732-9",
          "display": "Histology grade [Identifier] in Cancer specimen"
        }, {
          "system": "http://snomed.info/sct",
          "version": "http://snomed.info/sct/900000000000207008/version/20250501",
          "code": "371469007",
          "display": "Histologic grade of neoplasm (observable entity)"
        } ]
      },
      "subject": {
        "reference": "Patient/a02e16474896f1d528cac71f2c9b4c45ac3c9028e3a53fb414a1f7882991ee07"
      },
      "focus": [ {
        "reference": "Condition/528cbfb627eff7b031c902f2a97d149f5640d57a28f705fadba22462aae7c408"
      } ],
      "effectiveDateTime": "2021-06-01",
      "valueCodeableConcept": {
        "coding": [ {
          "system": "https://www.medizininformatik-initiative.de/fhir/ext/modul-onko/CodeSystem/mii-cs-onko-grading",
          "code": "2"
        } ]
      },
      "specimen": {
        "reference": "Specimen/dbaa556b11c59ff24efb94a652a9574e63de84b972e2caa8bf60b3d8e4ada2fb"
      }
    },
    "request": {
      "method": "PUT",
      "url": "Observation/054c6f48e9e36f31d41a4f28976fc3d047d11cd42ac74dd04281dd6844a77746"
    }
  }, {
    "fullUrl": "Observation/a7a691ec1683ed830d060a6ad430422497b98c0ebaf9c21345ce2ec1f79efc03",
    "resource": {
      "resourceType": "Observation",
      "id": "a7a691ec1683ed830d060a6ad430422497b98c0ebaf9c21345ce2ec1f79efc03",
      "meta": {
        "profile": [ "https://www.medizininformatik-initiative.de/fhir/ext/modul-onko/StructureDefinition/mii-pr-onko-anzahl-befallene-lymphknoten" ]
      },
      "identifier": [ {
        "system": "https://bzkf.github.io/obds-to-fhir/identifiers/lymphknotenuntersuchung-observation-id",
        "value": "523-befallen"
      } ],
      "status": "final",
      "category": [ {
        "coding": [ {
          "system": "http://terminology.hl7.org/CodeSystem/observation-category",
          "code": "laboratory"
        } ]
      } ],
      "code": {
        "coding": [ {
          "system": "http://loinc.org",
          "version": "2.80",
          "code": "21893-3"
        }, {
          "system": "http://snomed.info/sct",
          "version": "http://snomed.info/sct/900000000000207008/version/20250501",
          "code": "443527007"
        } ]
      },
      "subject": {
        "reference": "Patient/a02e16474896f1d528cac71f2c9b4c45ac3c9028e3a53fb414a1f7882991ee07"
      },
      "focus": [ {
        "reference": "Condition/528cbfb627eff7b031c902f2a97d149f5640d57a28f705fadba22462aae7c408"
      } ],
      "effectiveDateTime": "2021-06-01",
      "valueQuantity": {
        "value": 5,
        "unit": "#",
        "system": "http://unitsofmeasure.org",
        "code": "1"
      },
      "specimen": {
        "reference": "Specimen/dbaa556b11c59ff24efb94a652a9574e63de84b972e2caa8bf60b3d8e4ada2fb"
      }
    },
    "request": {
      "method": "PUT",
      "url": "Observation/a7a691ec1683ed830d060a6ad430422497b98c0ebaf9c21345ce2ec1f79efc03"
    }
  }, {
    "fullUrl": "Observation/5147ceb1f12f40677760f909e1f5f72f4d3f04a3d3b5c22a2a17e9633bb71e45",
    "resource": {
      "resourceType": "Observation",
      "id": "5147ceb1f12f40677760f909e1f5f72f4d3f04a3d3b5c22a2a17e9633bb71e45",
      "meta": {
        "profile": [ "https://www.medizininformatik-initiative.de/fhir/ext/modul-onko/StructureDefinition/mii-pr-onko-anzahl-untersuchte-lymphknoten" ]
      },
      "identifier": [ {
        "system": "https://bzkf.github.io/obds-to-fhir/identifiers/lymphknotenuntersuchung-observation-id",
        "value": "523-untersucht"
      } ],
      "status": "final",
      "category": [ {
        "coding": [ {
          "system": "http://terminology.hl7.org/CodeSystem/observation-category",
          "code": "laboratory"
        } ]
      } ],
      "code": {
        "coding": [ {
          "system": "http://loinc.org",
          "version": "2.80",
          "code": "21894-1"
        }, {
          "system": "http://snomed.info/sct",
          "version": "http://snomed.info/sct/900000000000207008/version/20250501",
          "code": "444025001"
        } ]
      },
      "subject": {
        "reference": "Patient/a02e16474896f1d528cac71f2c9b4c45ac3c9028e3a53fb414a1f7882991ee07"
      },
      "focus": [ {
        "reference": "Condition/528cbfb627eff7b031c902f2a97d149f5640d57a28f705fadba22462aae7c408"
      } ],
      "effectiveDateTime": "2021-06-01",
      "valueQuantity": {
        "value": 5,
        "unit": "#",
        "system": "http://unitsofmeasure.org",
        "code": "1"
      },
      "specimen": {
        "reference": "Specimen/dbaa556b11c59ff24efb94a652a9574e63de84b972e2caa8bf60b3d8e4ada2fb"
      }
    },
    "request": {
      "method": "PUT",
      "url": "Observation/5147ceb1f12f40677760f909e1f5f72f4d3f04a3d3b5c22a2a17e9633bb71e45"
    }
  }, {
    "fullUrl": "Observation/59228a2ab113fea003aafa21cf5d3c2a7a93b3b6ac80e23a7da2443cb4d480ff",
    "resource": {
      "resourceType": "Observation",
      "id": "59228a2ab113fea003aafa21cf5d3c2a7a93b3b6ac80e23a7da2443cb4d480ff",
      "meta": {
        "profile": [ "https://www.medizininformatik-initiative.de/fhir/ext/modul-onko/StructureDefinition/mii-pr-onko-anzahl-befallene-sentinel-lymphknoten" ]
      },
      "identifier": [ {
        "system": "https://bzkf.github.io/obds-to-fhir/identifiers/lymphknotenuntersuchung-observation-id",
        "value": "523-befallen-sentinel"
      } ],
      "status": "final",
      "category": [ {
        "coding": [ {
          "system": "http://terminology.hl7.org/CodeSystem/observation-category",
          "code": "laboratory"
        } ]
      } ],
      "code": {
        "coding": [ {
          "system": "http://loinc.org",
          "version": "2.80",
          "code": "92832-5"
        }, {
          "system": "http://snomed.info/sct",
          "version": "http://snomed.info/sct/900000000000207008/version/20250501",
          "code": "1264491009"
        } ]
      },
      "subject": {
        "reference": "Patient/a02e16474896f1d528cac71f2c9b4c45ac3c9028e3a53fb414a1f7882991ee07"
      },
      "focus": [ {
        "reference": "Condition/528cbfb627eff7b031c902f2a97d149f5640d57a28f705fadba22462aae7c408"
      } ],
      "effectiveDateTime": "2021-06-01",
      "valueQuantity": {
        "value": 1,
        "unit": "#",
        "system": "http://unitsofmeasure.org",
        "code": "1"
      },
      "specimen": {
        "reference": "Specimen/dbaa556b11c59ff24efb94a652a9574e63de84b972e2caa8bf60b3d8e4ada2fb"
      }
    },
    "request": {
      "method": "PUT",
      "url": "Observation/59228a2ab113fea003aafa21cf5d3c2a7a93b3b6ac80e23a7da2443cb4d480ff"
    }
  }, {
    "fullUrl": "Observation/38824a851ce81906651e5795be00c96305a85063eabdca906632ba14fab4bf0b",
    "resource": {
      "resourceType": "Observation",
      "id": "38824a851ce81906651e5795be00c96305a85063eabdca906632ba14fab4bf0b",
      "meta": {
        "profile": [ "https://www.medizininformatik-initiative.de/fhir/ext/modul-onko/StructureDefinition/mii-pr-onko-anzahl-untersuchte-sentinel-lymphknoten" ]
      },
      "identifier": [ {
        "system": "https://bzkf.github.io/obds-to-fhir/identifiers/lymphknotenuntersuchung-observation-id",
        "value": "523-untersucht-sentinel"
      } ],
      "status": "final",
      "category": [ {
        "coding": [ {
          "system": "http://terminology.hl7.org/CodeSystem/observation-category",
          "code": "laboratory"
        } ]
      } ],
      "code": {
        "coding": [ {
          "system": "http://loinc.org",
          "version": "2.80",
          "code": "85347-3"
        }, {
          "system": "http://snomed.info/sct",
          "version": "http://snomed.info/sct/900000000000207008/version/20250501",
          "code": "444411008"
        } ]
      },
      "subject": {
        "reference": "Patient/a02e16474896f1d528cac71f2c9b4c45ac3c9028e3a53fb414a1f7882991ee07"
      },
      "focus": [ {
        "reference": "Condition/528cbfb627eff7b031c902f2a97d149f5640d57a28f705fadba22462aae7c408"
      } ],
      "effectiveDateTime": "2021-06-01",
      "valueQuantity": {
        "value": 1,
        "unit": "#",
        "system": "http://unitsofmeasure.org",
        "code": "1"
      },
      "specimen": {
        "reference": "Specimen/dbaa556b11c59ff24efb94a652a9574e63de84b972e2caa8bf60b3d8e4ada2fb"
      }
    },
    "request": {
      "method": "PUT",
      "url": "Observation/38824a851ce81906651e5795be00c96305a85063eabdca906632ba14fab4bf0b"
    }
  }, {
    "fullUrl": "Observation/3929e93417ce127dd9a95634c70c808aa745c661dd2b54e8abb7817793f01f9d",
    "resource": {
      "resourceType": "Observation",
      "id": "3929e93417ce127dd9a95634c70c808aa745c661dd2b54e8abb7817793f01f9d",
      "meta": {
        "profile": [ "https://www.medizininformatik-initiative.de/fhir/ext/modul-onko/StructureDefinition/mii-pr-onko-genetische-variante" ]
      },
      "identifier": [ {
        "system": "https://bzkf.github.io/obds-to-fhir/identifiers/genetische-variante-observation-id",
        "value": "GenetischeAuspraegung-Verlauf-10_1_VE-1-W-0"
      } ],
      "status": "final",
      "category": [ {
        "coding": [ {
          "system": "http://terminology.hl7.org/CodeSystem/observation-category",
          "code": "laboratory",
          "display": "Laboratory"
        } ]
      } ],
      "code": {
        "coding": [ {
          "system": "http://loinc.org",
          "version": "2.80",
          "code": "69548-6",
          "display": "Genetic variant assessment"
        } ]
      },
      "subject": {
        "reference": "Patient/a02e16474896f1d528cac71f2c9b4c45ac3c9028e3a53fb414a1f7882991ee07"
      },
      "focus": [ {
        "reference": "Condition/528cbfb627eff7b031c902f2a97d149f5640d57a28f705fadba22462aae7c408"
      } ],
      "effectiveDateTime": "2021-06-01",
      "interpretation": [ {
        "coding": [ {
          "system": "https://www.medizininformatik-initiative.de/fhir/ext/modul-onko/CodeSystem/mii-cs-onko-genetische-variante-auspraegung",
          "code": "W"
        } ]
      } ],
      "note": [ {
        "text": "BLUB"
      } ]
    },
    "request": {
      "method": "PUT",
      "url": "Observation/3929e93417ce127dd9a95634c70c808aa745c661dd2b54e8abb7817793f01f9d"
    }
  }, {
    "fullUrl": "Observation/298bd6b9ec7a3d180599348849ac32177ba6d4d292b2744a6893b52cdb569241",
    "resource": {
      "resourceType": "Observation",
      "id": "298bd6b9ec7a3d180599348849ac32177ba6d4d292b2744a6893b52cdb569241",
      "meta": {
        "profile": [ "https://www.medizininformatik-initiative.de/fhir/ext/modul-onko/StructureDefinition/mii-pr-onko-tnm-t-kategorie" ]
      },
      "identifier": [ {
        "system": "https://bzkf.github.io/obds-to-fhir/identifiers/tnm-t-kategorie-observation-id",
        "value": "484-2021-06-01-T"
      } ],
      "status": "final",
      "code": {
        "extension": [ {
          "url": "https://www.medizininformatik-initiative.de/fhir/ext/modul-onko/StructureDefinition/mii-ex-onko-tnm-cp-praefix",
          "valueCodeableConcept": {
            "coding": [ {
              "system": "https://www.uicc.org/resources/tnm",
              "code": "p"
            } ]
          }
        } ],
        "coding": [ {
          "system": "http://snomed.info/sct",
          "version": "http://snomed.info/sct/900000000000207008/version/20250501",
          "code": "384625004",
          "display": "pT category (observable entity)"
        } ]
      },
      "subject": {
        "reference": "Patient/a02e16474896f1d528cac71f2c9b4c45ac3c9028e3a53fb414a1f7882991ee07"
      },
      "focus": [ {
        "reference": "Condition/528cbfb627eff7b031c902f2a97d149f5640d57a28f705fadba22462aae7c408"
      } ],
      "effectiveDateTime": "2021-06-01",
      "valueCodeableConcept": {
        "coding": [ {
          "system": "https://www.uicc.org/resources/tnm",
          "code": "T3"
        } ]
      },
      "method": {
        "coding": [ {
          "system": "https://www.medizininformatik-initiative.de/fhir/ext/modul-onko/CodeSystem/mii-cs-onko-tnm-version",
          "code": "8"
        } ]
      }
    },
    "request": {
      "method": "PUT",
      "url": "Observation/298bd6b9ec7a3d180599348849ac32177ba6d4d292b2744a6893b52cdb569241"
    }
  }, {
    "fullUrl": "Observation/aeced041618238db076071b987e7817ec4e57c466e9c6e2dfc081170737930b5",
    "resource": {
      "resourceType": "Observation",
      "id": "aeced041618238db076071b987e7817ec4e57c466e9c6e2dfc081170737930b5",
      "meta": {
        "profile": [ "https://www.medizininformatik-initiative.de/fhir/ext/modul-onko/StructureDefinition/mii-pr-onko-tnm-n-kategorie" ]
      },
      "identifier": [ {
        "system": "https://bzkf.github.io/obds-to-fhir/identifiers/tnm-n-kategorie-observation-id",
        "value": "484-2021-06-01-N"
      } ],
      "status": "final",
      "code": {
        "extension": [ {
          "url": "https://www.medizininformatik-initiative.de/fhir/ext/modul-onko/StructureDefinition/mii-ex-onko-tnm-cp-praefix",
          "valueCodeableConcept": {
            "coding": [ {
              "system": "https://www.uicc.org/resources/tnm",
              "code": "p"
            } ]
          }
        } ],
        "coding": [ {
          "system": "http://snomed.info/sct",
          "version": "http://snomed.info/sct/900000000000207008/version/20250501",
          "code": "371494008",
          "display": "pN category (observable entity)"
        } ]
      },
      "subject": {
        "reference": "Patient/a02e16474896f1d528cac71f2c9b4c45ac3c9028e3a53fb414a1f7882991ee07"
      },
      "focus": [ {
        "reference": "Condition/528cbfb627eff7b031c902f2a97d149f5640d57a28f705fadba22462aae7c408"
      } ],
      "effectiveDateTime": "2021-06-01",
      "valueCodeableConcept": {
        "coding": [ {
          "system": "https://www.uicc.org/resources/tnm",
          "code": "N3"
        } ]
      },
      "method": {
        "coding": [ {
          "system": "https://www.medizininformatik-initiative.de/fhir/ext/modul-onko/CodeSystem/mii-cs-onko-tnm-version",
          "code": "8"
        } ]
      }
    },
    "request": {
      "method": "PUT",
      "url": "Observation/aeced041618238db076071b987e7817ec4e57c466e9c6e2dfc081170737930b5"
    }
  }, {
    "fullUrl": "Observation/31c8188ec8fd086818ed3917f120ea9da1b4988bfff2f47b59b8b909cbd14cb5",
    "resource": {
      "resourceType": "Observation",
      "id": "31c8188ec8fd086818ed3917f120ea9da1b4988bfff2f47b59b8b909cbd14cb5",
      "meta": {
        "profile": [ "https://www.medizininformatik-initiative.de/fhir/ext/modul-onko/StructureDefinition/mii-pr-onko-tnm-m-kategorie" ]
      },
      "identifier": [ {
        "system": "https://bzkf.github.io/obds-to-fhir/identifiers/tnm-m-kategorie-observation-id",
        "value": "484-2021-06-01-M"
      } ],
      "status": "final",
      "code": {
        "extension": [ {
          "url": "https://www.medizininformatik-initiative.de/fhir/ext/modul-onko/StructureDefinition/mii-ex-onko-tnm-cp-praefix",
          "valueCodeableConcept": {
            "coding": [ {
              "system": "https://www.uicc.org/resources/tnm",
              "code": "p"
            } ]
          }
        } ],
        "coding": [ {
          "system": "http://snomed.info/sct",
          "version": "http://snomed.info/sct/900000000000207008/version/20250501",
          "code": "371497001",
          "display": "pM category (observable entity)"
        } ]
      },
      "subject": {
        "reference": "Patient/a02e16474896f1d528cac71f2c9b4c45ac3c9028e3a53fb414a1f7882991ee07"
      },
      "focus": [ {
        "reference": "Condition/528cbfb627eff7b031c902f2a97d149f5640d57a28f705fadba22462aae7c408"
      } ],
      "effectiveDateTime": "2021-06-01",
      "valueCodeableConcept": {
        "coding": [ {
          "system": "https://www.uicc.org/resources/tnm",
          "code": "M1"
        } ]
      },
      "method": {
        "coding": [ {
          "system": "https://www.medizininformatik-initiative.de/fhir/ext/modul-onko/CodeSystem/mii-cs-onko-tnm-version",
          "code": "8"
        } ]
      }
    },
    "request": {
      "method": "PUT",
      "url": "Observation/31c8188ec8fd086818ed3917f120ea9da1b4988bfff2f47b59b8b909cbd14cb5"
    }
  }, {
    "fullUrl": "Observation/f5f92baaa4f48d7e4e7b5d683ba6f0c74c615506b1052eeee5d0e4cd1b1bd04f",
    "resource": {
      "resourceType": "Observation",
      "id": "f5f92baaa4f48d7e4e7b5d683ba6f0c74c615506b1052eeee5d0e4cd1b1bd04f",
      "meta": {
        "profile": [ "https://www.medizininformatik-initiative.de/fhir/ext/modul-onko/StructureDefinition/mii-pr-onko-tnm-l-kategorie" ]
      },
      "identifier": [ {
        "system": "https://bzkf.github.io/obds-to-fhir/identifiers/tnm-l-kategorie-observation-id",
        "value": "484-2021-06-01-L"
      } ],
      "status": "final",
      "code": {
        "coding": [ {
          "system": "http://snomed.info/sct",
          "version": "http://snomed.info/sct/900000000000207008/version/20250501",
          "code": "395715009",
          "display": "Status of lymphatic (small vessel) invasion by tumor (observable entity)"
        } ]
      },
      "subject": {
        "reference": "Patient/a02e16474896f1d528cac71f2c9b4c45ac3c9028e3a53fb414a1f7882991ee07"
      },
      "focus": [ {
        "reference": "Condition/528cbfb627eff7b031c902f2a97d149f5640d57a28f705fadba22462aae7c408"
      } ],
      "effectiveDateTime": "2021-06-01",
      "valueCodeableConcept": {
        "coding": [ {
          "system": "https://www.uicc.org/resources/tnm",
          "code": "L1"
        } ]
      },
      "method": {
        "coding": [ {
          "system": "https://www.medizininformatik-initiative.de/fhir/ext/modul-onko/CodeSystem/mii-cs-onko-tnm-version",
          "code": "8"
        } ]
      }
    },
    "request": {
      "method": "PUT",
      "url": "Observation/f5f92baaa4f48d7e4e7b5d683ba6f0c74c615506b1052eeee5d0e4cd1b1bd04f"
    }
  }, {
    "fullUrl": "Observation/e2e9b1ab40db5c5b225e3fe18d703b42adc94bc99e90d0985b100f52e9ea320e",
    "resource": {
      "resourceType": "Observation",
      "id": "e2e9b1ab40db5c5b225e3fe18d703b42adc94bc99e90d0985b100f52e9ea320e",
      "meta": {
        "profile": [ "https://www.medizininformatik-initiative.de/fhir/ext/modul-onko/StructureDefinition/mii-pr-onko-tnm-pn-kategorie" ]
      },
      "identifier": [ {
        "system": "https://bzkf.github.io/obds-to-fhir/identifiers/tnm-pn-kategorie-observation-id",
        "value": "484-2021-06-01-Pn"
      } ],
      "status": "final",
      "code": {
        "coding": [ {
          "system": "http://snomed.info/sct",
          "version": "http://snomed.info/sct/900000000000207008/version/20250501",
          "code": "371513001",
          "display": "Presence of direct invasion by primary malignant neoplasm to nerve (observable entity)"
        } ]
      },
      "subject": {
        "reference": "Patient/a02e16474896f1d528cac71f2c9b4c45ac3c9028e3a53fb414a1f7882991ee07"
      },
      "focus": [ {
        "reference": "Condition/528cbfb627eff7b031c902f2a97d149f5640d57a28f705fadba22462aae7c408"
      } ],
      "effectiveDateTime": "2021-06-01",
      "valueCodeableConcept": {
        "coding": [ {
          "system": "https://www.uicc.org/resources/tnm",
          "code": "Pn1"
        } ]
      },
      "method": {
        "coding": [ {
          "system": "https://www.medizininformatik-initiative.de/fhir/ext/modul-onko/CodeSystem/mii-cs-onko-tnm-version",
          "code": "8"
        } ]
      }
    },
    "request": {
      "method": "PUT",
      "url": "Observation/e2e9b1ab40db5c5b225e3fe18d703b42adc94bc99e90d0985b100f52e9ea320e"
    }
  }, {
    "fullUrl": "Observation/ef6b5360d09410658030df21c6b65dc1746c5cf24d076735b3f21d994e6c6a39",
    "resource": {
      "resourceType": "Observation",
      "id": "ef6b5360d09410658030df21c6b65dc1746c5cf24d076735b3f21d994e6c6a39",
      "meta": {
        "profile": [ "https://www.medizininformatik-initiative.de/fhir/ext/modul-onko/StructureDefinition/mii-pr-onko-tnm-r-symbol" ]
      },
      "identifier": [ {
        "system": "https://bzkf.github.io/obds-to-fhir/identifiers/tnm-r-symbol-observation-id",
        "value": "484-2021-06-01-r"
      } ],
      "status": "final",
      "code": {
        "coding": [ {
          "system": "http://loinc.org",
          "version": "2.80",
          "code": "101659-1",
          "display": "Cancer staging after tumor recurrence"
        } ]
      },
      "subject": {
        "reference": "Patient/a02e16474896f1d528cac71f2c9b4c45ac3c9028e3a53fb414a1f7882991ee07"
      },
      "focus": [ {
        "reference": "Condition/528cbfb627eff7b031c902f2a97d149f5640d57a28f705fadba22462aae7c408"
      } ],
      "effectiveDateTime": "2021-06-01",
      "valueCodeableConcept": {
        "coding": [ {
          "system": "http://snomed.info/sct",
          "version": "http://snomed.info/sct/900000000000207008/version/20250501",
          "code": "421188008",
          "display": "Tumor staging descriptor r (tumor staging)"
        } ]
      },
      "method": {
        "coding": [ {
          "system": "https://www.medizininformatik-initiative.de/fhir/ext/modul-onko/CodeSystem/mii-cs-onko-tnm-version",
          "code": "8"
        } ]
      }
    },
    "request": {
      "method": "PUT",
      "url": "Observation/ef6b5360d09410658030df21c6b65dc1746c5cf24d076735b3f21d994e6c6a39"
    }
  }, {
    "fullUrl": "Observation/15518f3973ae0fc19ab9ddfdeb7b2590f6f8800868733da858939af34f98caa6",
    "resource": {
      "resourceType": "Observation",
      "id": "15518f3973ae0fc19ab9ddfdeb7b2590f6f8800868733da858939af34f98caa6",
      "meta": {
        "profile": [ "https://www.medizininformatik-initiative.de/fhir/ext/modul-onko/StructureDefinition/mii-pr-onko-tnm-v-kategorie" ]
      },
      "identifier": [ {
        "system": "https://bzkf.github.io/obds-to-fhir/identifiers/tnm-v-kategorie-observation-id",
        "value": "484-2021-06-01-V"
      } ],
      "status": "final",
      "code": {
        "coding": [ {
          "system": "http://snomed.info/sct",
          "version": "http://snomed.info/sct/900000000000207008/version/20250501",
          "code": "371493002",
          "display": "Status of venous (large vessel) invasion by tumor (observable entity)"
        } ]
      },
      "subject": {
        "reference": "Patient/a02e16474896f1d528cac71f2c9b4c45ac3c9028e3a53fb414a1f7882991ee07"
      },
      "focus": [ {
        "reference": "Condition/528cbfb627eff7b031c902f2a97d149f5640d57a28f705fadba22462aae7c408"
      } ],
      "effectiveDateTime": "2021-06-01",
      "valueCodeableConcept": {
        "coding": [ {
          "system": "https://www.uicc.org/resources/tnm",
          "code": "V2"
        } ]
      },
      "method": {
        "coding": [ {
          "system": "https://www.medizininformatik-initiative.de/fhir/ext/modul-onko/CodeSystem/mii-cs-onko-tnm-version",
          "code": "8"
        } ]
      }
    },
    "request": {
      "method": "PUT",
      "url": "Observation/15518f3973ae0fc19ab9ddfdeb7b2590f6f8800868733da858939af34f98caa6"
    }
  }, {
    "fullUrl": "Observation/96092abf3ec0e5e77ec2ce4bd9eb71a367c7cfd6660483df5771c3593ec34a50",
    "resource": {
      "resourceType": "Observation",
      "id": "96092abf3ec0e5e77ec2ce4bd9eb71a367c7cfd6660483df5771c3593ec34a50",
      "meta": {
        "profile": [ "https://www.medizininformatik-initiative.de/fhir/ext/modul-onko/StructureDefinition/mii-pr-onko-tnm-klassifikation" ]
      },
      "identifier": [ {
        "system": "https://bzkf.github.io/obds-to-fhir/identifiers/tnm-grouping-observation-id",
        "value": "484-2021-06-01"
      } ],
      "status": "final",
      "code": {
        "coding": [ {
          "system": "http://snomed.info/sct",
          "version": "http://snomed.info/sct/900000000000207008/version/20250501",
          "code": "399390009",
          "display": "TNM stage grouping"
        } ]
      },
      "subject": {
        "reference": "Patient/a02e16474896f1d528cac71f2c9b4c45ac3c9028e3a53fb414a1f7882991ee07"
      },
      "focus": [ {
        "reference": "Condition/528cbfb627eff7b031c902f2a97d149f5640d57a28f705fadba22462aae7c408"
      } ],
      "effectiveDateTime": "2021-06-01",
      "valueCodeableConcept": {
        "coding": [ {
          "system": "https://www.uicc.org/resources/tnm",
          "code": "IIIA",
          "display": "Stadium IIIA"
        } ]
      },
      "method": {
        "coding": [ {
          "system": "https://www.medizininformatik-initiative.de/fhir/ext/modul-onko/CodeSystem/mii-cs-onko-tnm-version",
          "code": "8"
        } ]
      },
      "hasMember": [ {
        "reference": "Observation/298bd6b9ec7a3d180599348849ac32177ba6d4d292b2744a6893b52cdb569241"
      }, {
        "reference": "Observation/aeced041618238db076071b987e7817ec4e57c466e9c6e2dfc081170737930b5"
      }, {
        "reference": "Observation/31c8188ec8fd086818ed3917f120ea9da1b4988bfff2f47b59b8b909cbd14cb5"
      }, {
        "reference": "Observation/f5f92baaa4f48d7e4e7b5d683ba6f0c74c615506b1052eeee5d0e4cd1b1bd04f"
      }, {
        "reference": "Observation/e2e9b1ab40db5c5b225e3fe18d703b42adc94bc99e90d0985b100f52e9ea320e"
      }, {
        "reference": "Observation/ef6b5360d09410658030df21c6b65dc1746c5cf24d076735b3f21d994e6c6a39"
      }, {
        "reference": "Observation/15518f3973ae0fc19ab9ddfdeb7b2590f6f8800868733da858939af34f98caa6"
      } ]
    },
    "request": {
      "method": "PUT",
      "url": "Observation/96092abf3ec0e5e77ec2ce4bd9eb71a367c7cfd6660483df5771c3593ec34a50"
    }
  }, {
    "fullUrl": "Observation/3b83f561f8c7272599891f977c98d3a8bed5b0fff92e44bdf42eecf06c386261",
    "resource": {
      "resourceType": "Observation",
      "id": "3b83f561f8c7272599891f977c98d3a8bed5b0fff92e44bdf42eecf06c386261",
      "meta": {
        "profile": [ "https://www.medizininformatik-initiative.de/fhir/ext/modul-onko/StructureDefinition/mii-pr-onko-verlauf" ]
      },
      "identifier": [ {
        "system": "https://bzkf.github.io/obds-to-fhir/identifiers/verlauf-observation-id",
        "value": "343"
      } ],
      "status": "final",
      "code": {
        "coding": [ {
          "system": "http://snomed.info/sct",
          "version": "http://snomed.info/sct/900000000000207008/version/20250501",
          "code": "396432002",
          "display": "Status of regression of tumor (observable entity)"
        } ]
      },
      "subject": {
        "reference": "Patient/a02e16474896f1d528cac71f2c9b4c45ac3c9028e3a53fb414a1f7882991ee07"
      },
      "focus": [ {
        "reference": "Condition/dec60bae0a707f01b77ab2ef8f22d53d4b352636c9cf80b1081ad6aa1252cb1d"
      } ],
      "effectiveDateTime": "2020-12-01",
      "valueCodeableConcept": {
        "coding": [ {
          "system": "https://www.medizininformatik-initiative.de/fhir/ext/modul-onko/CodeSystem/mii-cs-onko-verlauf-gesamtbeurteilung",
          "code": "P",
          "display": "Progression"
        } ]
      },
      "component": [ {
        "code": {
          "coding": [ {
            "system": "http://snomed.info/sct",
            "version": "http://snomed.info/sct/900000000000207008/version/20250501",
            "code": "277062004",
            "display": "Status des Residualtumors"
          } ]
        },
        "valueCodeableConcept": {
          "coding": [ {
            "system": "https://www.medizininformatik-initiative.de/fhir/ext/modul-onko/CodeSystem/mii-cs-onko-verlauf-primaertumor",
            "code": "P",
            "display": "Tumorreste (Residualtumor) Progress"
          } ]
        }
      }, {
        "code": {
          "coding": [ {
            "system": "http://snomed.info/sct",
            "version": "http://snomed.info/sct/900000000000207008/version/20250501",
            "code": "399656008",
            "display": "Status of tumor metastasis to regional lymph nodes (observable entity)"
          } ]
        },
        "valueCodeableConcept": {
          "coding": [ {
            "system": "https://www.medizininformatik-initiative.de/fhir/ext/modul-onko/CodeSystem/mii-cs-onko-verlauf-lymphknoten",
            "code": "K",
            "display": "kein Lymphknotenbefall nachweisbar"
          } ]
        }
      }, {
        "code": {
          "coding": [ {
            "system": "http://snomed.info/sct",
            "version": "http://snomed.info/sct/900000000000207008/version/20250501",
            "code": "399608002",
            "display": "Status of distant metastasis (observable entity)"
          } ]
        },
        "valueCodeableConcept": {
          "coding": [ {
            "system": "https://www.medizininformatik-initiative.de/fhir/ext/modul-onko/CodeSystem/mii-cs-onko-verlauf-fernmetastasen",
            "code": "K",
            "display": "keine Fernmetastasen nachweisbar"
          } ]
        }
      } ]
    },
    "request": {
      "method": "PUT",
      "url": "Observation/3b83f561f8c7272599891f977c98d3a8bed5b0fff92e44bdf42eecf06c386261"
    }
  }, {
    "fullUrl": "Observation/b7fd0086edb8da26c6576729a470599486aac33de3dd0cd1a8396aafd4d2964a",
    "resource": {
      "resourceType": "Observation",
      "id": "b7fd0086edb8da26c6576729a470599486aac33de3dd0cd1a8396aafd4d2964a",
      "meta": {
        "profile": [ "https://www.medizininformatik-initiative.de/fhir/ext/modul-onko/StructureDefinition/mii-pr-onko-allgemeiner-leistungszustand-ecog" ]
      },
      "identifier": [ {
        "system": "https://bzkf.github.io/obds-to-fhir/identifiers/allgemeiner-leistungszustand-ecog-id",
        "value": "ECOG-10_2_VE_1"
      } ],
      "status": "final",
      "code": {
        "coding": [ {
          "system": "http://snomed.info/sct",
          "version": "http://snomed.info/sct/900000000000207008/version/20250501",
          "code": "423740007",
          "display": "Eastern Cooperative Oncology Group performance status (observable entity)"
        } ]
      },
      "subject": {
        "reference": "Patient/a02e16474896f1d528cac71f2c9b4c45ac3c9028e3a53fb414a1f7882991ee07"
      },
      "focus": [ {
        "reference": "Condition/dec60bae0a707f01b77ab2ef8f22d53d4b352636c9cf80b1081ad6aa1252cb1d"
      } ],
      "effectiveDateTime": "2020-12-01",
      "valueCodeableConcept": {
        "coding": [ {
          "system": "https://www.medizininformatik-initiative.de/fhir/ext/modul-onko/CodeSystem/mii-cs-onko-allgemeiner-leistungszustand-ecog",
          "code": "0",
          "display": "Normale, uneingeschränkte Aktivität wie vor der Erkrankung (90 - 100 % nach Karnofsky)"
        } ]
      }
    },
    "request": {
      "method": "PUT",
      "url": "Observation/b7fd0086edb8da26c6576729a470599486aac33de3dd0cd1a8396aafd4d2964a"
    }
  }, {
    "fullUrl": "Observation/200a0d9475f25024d8b7403dec1a059def7c10fdcef7ec2ccd4cb84d0b170b95",
    "resource": {
      "resourceType": "Observation",
      "id": "200a0d9475f25024d8b7403dec1a059def7c10fdcef7ec2ccd4cb84d0b170b95",
      "meta": {
        "profile": [ "https://www.medizininformatik-initiative.de/fhir/ext/modul-onko/StructureDefinition/mii-pr-onko-verlauf" ]
      },
      "identifier": [ {
        "system": "https://bzkf.github.io/obds-to-fhir/identifiers/verlauf-observation-id",
        "value": "344"
      } ],
      "status": "final",
      "code": {
        "coding": [ {
          "system": "http://snomed.info/sct",
          "version": "http://snomed.info/sct/900000000000207008/version/20250501",
          "code": "396432002",
          "display": "Status of regression of tumor (observable entity)"
        } ]
      },
      "subject": {
        "reference": "Patient/a02e16474896f1d528cac71f2c9b4c45ac3c9028e3a53fb414a1f7882991ee07"
      },
      "focus": [ {
        "reference": "Condition/778f6d2023c112c28f7c0aaa0bb7693aa3c5b16f87093a7d52f647c7388d4285"
      } ],
      "effectiveDateTime": "2021-12-15",
      "valueCodeableConcept": {
        "coding": [ {
          "system": "https://www.medizininformatik-initiative.de/fhir/ext/modul-onko/CodeSystem/mii-cs-onko-verlauf-gesamtbeurteilung",
          "code": "P",
          "display": "Progression"
        } ]
      },
      "component": [ {
        "code": {
          "coding": [ {
            "system": "http://snomed.info/sct",
            "version": "http://snomed.info/sct/900000000000207008/version/20250501",
            "code": "277062004",
            "display": "Status des Residualtumors"
          } ]
        },
        "valueCodeableConcept": {
          "coding": [ {
            "system": "https://www.medizininformatik-initiative.de/fhir/ext/modul-onko/CodeSystem/mii-cs-onko-verlauf-primaertumor",
            "code": "P",
            "display": "Tumorreste (Residualtumor) Progress"
          } ]
        }
      }, {
        "code": {
          "coding": [ {
            "system": "http://snomed.info/sct",
            "version": "http://snomed.info/sct/900000000000207008/version/20250501",
            "code": "399656008",
            "display": "Status of tumor metastasis to regional lymph nodes (observable entity)"
          } ]
        },
        "valueCodeableConcept": {
          "coding": [ {
            "system": "https://www.medizininformatik-initiative.de/fhir/ext/modul-onko/CodeSystem/mii-cs-onko-verlauf-lymphknoten",
            "code": "K",
            "display": "kein Lymphknotenbefall nachweisbar"
          } ]
        }
      }, {
        "code": {
          "coding": [ {
            "system": "http://snomed.info/sct",
            "version": "http://snomed.info/sct/900000000000207008/version/20250501",
            "code": "399608002",
            "display": "Status of distant metastasis (observable entity)"
          } ]
        },
        "valueCodeableConcept": {
          "coding": [ {
            "system": "https://www.medizininformatik-initiative.de/fhir/ext/modul-onko/CodeSystem/mii-cs-onko-verlauf-fernmetastasen",
            "code": "K",
            "display": "keine Fernmetastasen nachweisbar"
          } ]
        }
      } ]
    },
    "request": {
      "method": "PUT",
      "url": "Observation/200a0d9475f25024d8b7403dec1a059def7c10fdcef7ec2ccd4cb84d0b170b95"
    }
  }, {
    "fullUrl": "Observation/9f15623e280f9fd3ded3abf724026c23236dae872fa38a1534be56a9b8517cfa",
    "resource": {
      "resourceType": "Observation",
      "id": "9f15623e280f9fd3ded3abf724026c23236dae872fa38a1534be56a9b8517cfa",
      "meta": {
        "profile": [ "https://www.medizininformatik-initiative.de/fhir/ext/modul-onko/StructureDefinition/mii-pr-onko-allgemeiner-leistungszustand-ecog" ]
      },
      "identifier": [ {
        "system": "https://bzkf.github.io/obds-to-fhir/identifiers/allgemeiner-leistungszustand-ecog-id",
        "value": "ECOG-10_3_VE_1"
      } ],
      "status": "final",
      "code": {
        "coding": [ {
          "system": "http://snomed.info/sct",
          "version": "http://snomed.info/sct/900000000000207008/version/20250501",
          "code": "423740007",
          "display": "Eastern Cooperative Oncology Group performance status (observable entity)"
        } ]
      },
      "subject": {
        "reference": "Patient/a02e16474896f1d528cac71f2c9b4c45ac3c9028e3a53fb414a1f7882991ee07"
      },
      "focus": [ {
        "reference": "Condition/778f6d2023c112c28f7c0aaa0bb7693aa3c5b16f87093a7d52f647c7388d4285"
      } ],
      "effectiveDateTime": "2021-12-15",
      "valueCodeableConcept": {
        "coding": [ {
          "system": "https://www.medizininformatik-initiative.de/fhir/ext/modul-onko/CodeSystem/mii-cs-onko-allgemeiner-leistungszustand-ecog",
          "code": "0",
          "display": "Normale, uneingeschränkte Aktivität wie vor der Erkrankung (90 - 100 % nach Karnofsky)"
        } ]
      }
    },
    "request": {
      "method": "PUT",
      "url": "Observation/9f15623e280f9fd3ded3abf724026c23236dae872fa38a1534be56a9b8517cfa"
    }
  }, {
    "fullUrl": "Observation/6ff37297dfe99bf538549b388e8a9dad85756899519ef6e8e1775da5273bac8d",
    "resource": {
      "resourceType": "Observation",
      "id": "6ff37297dfe99bf538549b388e8a9dad85756899519ef6e8e1775da5273bac8d",
      "meta": {
        "profile": [ "https://www.medizininformatik-initiative.de/fhir/ext/modul-onko/StructureDefinition/mii-pr-onko-allgemeiner-leistungszustand-ecog" ]
      },
      "identifier": [ {
        "system": "https://bzkf.github.io/obds-to-fhir/identifiers/allgemeiner-leistungszustand-ecog-id",
        "value": "ECOG-10_1_DI_1"
      } ],
      "status": "final",
      "code": {
        "coding": [ {
          "system": "http://snomed.info/sct",
          "version": "http://snomed.info/sct/900000000000207008/version/20250501",
          "code": "423740007",
          "display": "Eastern Cooperative Oncology Group performance status (observable entity)"
        } ]
      },
      "subject": {
        "reference": "Patient/a02e16474896f1d528cac71f2c9b4c45ac3c9028e3a53fb414a1f7882991ee07"
      },
      "focus": [ {
        "reference": "Condition/528cbfb627eff7b031c902f2a97d149f5640d57a28f705fadba22462aae7c408"
      } ],
      "effectiveDateTime": "2020-03-01",
      "valueCodeableConcept": {
        "coding": [ {
          "system": "https://www.medizininformatik-initiative.de/fhir/ext/modul-onko/CodeSystem/mii-cs-onko-allgemeiner-leistungszustand-ecog",
          "code": "1",
          "display": "Einschränkung bei körperlicher Anstrengung, aber gehfähig; leichte körperliche Arbeit bzw. Arbeit im Sitzen (z. B. leichte Hausarbeit oder Büroarbeit) möglich (70 - 80 % nach Karnofsky)"
        } ]
      }
    },
    "request": {
      "method": "PUT",
      "url": "Observation/6ff37297dfe99bf538549b388e8a9dad85756899519ef6e8e1775da5273bac8d"
    }
  }, {
    "fullUrl": "Observation/ce9ac4ea209e8287513499093af316c9a589459a575f7fa6c4499530ceaed1da",
    "resource": {
      "resourceType": "Observation",
      "id": "ce9ac4ea209e8287513499093af316c9a589459a575f7fa6c4499530ceaed1da",
      "meta": {
        "profile": [ "https://www.medizininformatik-initiative.de/fhir/ext/modul-onko/StructureDefinition/mii-pr-onko-fernmetastasen" ]
      },
      "identifier": [ {
        "system": "https://bzkf.github.io/obds-to-fhir/identifiers/fernmetastasen-id",
        "value": "10_1_DI_1-Diagnose-0"
      } ],
      "status": "final",
      "code": {
        "coding": [ {
          "system": "http://snomed.info/sct",
          "version": "http://snomed.info/sct/900000000000207008/version/20250501",
          "code": "385421009",
          "display": "Anatomic location of metastatic spread of malignant neoplasm (observable entity)"
        } ]
      },
      "subject": {
        "reference": "Patient/a02e16474896f1d528cac71f2c9b4c45ac3c9028e3a53fb414a1f7882991ee07"
      },
      "focus": [ {
        "reference": "Condition/528cbfb627eff7b031c902f2a97d149f5640d57a28f705fadba22462aae7c408"
      } ],
      "effectiveDateTime": "2020-03-01",
      "valueCodeableConcept": {
        "coding": [ {
          "system": "https://www.medizininformatik-initiative.de/fhir/ext/modul-onko/CodeSystem/mii-cs-onko-fernmetastasen",
          "code": "OSS"
        } ]
      }
    },
    "request": {
      "method": "PUT",
      "url": "Observation/ce9ac4ea209e8287513499093af316c9a589459a575f7fa6c4499530ceaed1da"
    }
  }, {
    "fullUrl": "Specimen/a70e46fffb8c68f2c35dd1918786f61e59153831a4c73d69f74999c2a338de1f",
    "resource": {
      "resourceType": "Specimen",
      "id": "a70e46fffb8c68f2c35dd1918786f61e59153831a4c73d69f74999c2a338de1f",
      "meta": {
        "profile": [ "https://www.medizininformatik-initiative.de/fhir/ext/modul-onko/StructureDefinition/mii-pr-onko-specimen" ]
      },
      "identifier": [ {
        "system": "https://bzkf.github.io/obds-to-fhir/identifiers/histologie-specimen-id",
        "value": "521"
      } ],
      "accessionIdentifier": {
        "value": "X/123456/1"
      },
      "subject": {
        "reference": "Patient/a02e16474896f1d528cac71f2c9b4c45ac3c9028e3a53fb414a1f7882991ee07"
      },
      "collection": {
        "collectedDateTime": "2020-03-05"
      }
    },
    "request": {
      "method": "PUT",
      "url": "Specimen/a70e46fffb8c68f2c35dd1918786f61e59153831a4c73d69f74999c2a338de1f"
    }
  }, {
    "fullUrl": "Observation/6ea332d7b46040d412e05087da2ac37440168972e3349691d75f49ef3f749a66",
    "resource": {
      "resourceType": "Observation",
      "id": "6ea332d7b46040d412e05087da2ac37440168972e3349691d75f49ef3f749a66",
      "meta": {
        "profile": [ "https://www.medizininformatik-initiative.de/fhir/ext/modul-onko/StructureDefinition/mii-pr-onko-grading" ]
      },
      "identifier": [ {
        "system": "https://bzkf.github.io/obds-to-fhir/identifiers/grading-observation-id",
        "value": "521-grading"
      } ],
      "status": "final",
      "category": [ {
        "coding": [ {
          "system": "http://terminology.hl7.org/CodeSystem/observation-category",
          "code": "laboratory"
        } ]
      } ],
      "code": {
        "coding": [ {
          "system": "http://loinc.org",
          "version": "2.80",
          "code": "33732-9",
          "display": "Histology grade [Identifier] in Cancer specimen"
        }, {
          "system": "http://snomed.info/sct",
          "version": "http://snomed.info/sct/900000000000207008/version/20250501",
          "code": "371469007",
          "display": "Histologic grade of neoplasm (observable entity)"
        } ]
      },
      "subject": {
        "reference": "Patient/a02e16474896f1d528cac71f2c9b4c45ac3c9028e3a53fb414a1f7882991ee07"
      },
      "focus": [ {
        "reference": "Condition/528cbfb627eff7b031c902f2a97d149f5640d57a28f705fadba22462aae7c408"
      } ],
      "effectiveDateTime": "2020-03-05",
      "valueCodeableConcept": {
        "coding": [ {
          "system": "https://www.medizininformatik-initiative.de/fhir/ext/modul-onko/CodeSystem/mii-cs-onko-grading",
          "code": "2"
        } ]
      },
      "specimen": {
        "reference": "Specimen/a70e46fffb8c68f2c35dd1918786f61e59153831a4c73d69f74999c2a338de1f"
      }
    },
    "request": {
      "method": "PUT",
      "url": "Observation/6ea332d7b46040d412e05087da2ac37440168972e3349691d75f49ef3f749a66"
    }
  }, {
    "fullUrl": "Observation/2f4e0120872416b6df2ef1f08fe6af9df50afd3f04e6dcece4ac97bfdd924f0a",
    "resource": {
      "resourceType": "Observation",
      "id": "2f4e0120872416b6df2ef1f08fe6af9df50afd3f04e6dcece4ac97bfdd924f0a",
      "meta": {
        "profile": [ "https://www.medizininformatik-initiative.de/fhir/ext/modul-onko/StructureDefinition/mii-pr-onko-anzahl-befallene-lymphknoten" ]
      },
      "identifier": [ {
        "system": "https://bzkf.github.io/obds-to-fhir/identifiers/lymphknotenuntersuchung-observation-id",
        "value": "521-befallen"
      } ],
      "status": "final",
      "category": [ {
        "coding": [ {
          "system": "http://terminology.hl7.org/CodeSystem/observation-category",
          "code": "laboratory"
        } ]
      } ],
      "code": {
        "coding": [ {
          "system": "http://loinc.org",
          "version": "2.80",
          "code": "21893-3"
        }, {
          "system": "http://snomed.info/sct",
          "version": "http://snomed.info/sct/900000000000207008/version/20250501",
          "code": "443527007"
        } ]
      },
      "subject": {
        "reference": "Patient/a02e16474896f1d528cac71f2c9b4c45ac3c9028e3a53fb414a1f7882991ee07"
      },
      "focus": [ {
        "reference": "Condition/528cbfb627eff7b031c902f2a97d149f5640d57a28f705fadba22462aae7c408"
      } ],
      "effectiveDateTime": "2020-03-05",
      "valueQuantity": {
        "value": 2,
        "unit": "#",
        "system": "http://unitsofmeasure.org",
        "code": "1"
      },
      "specimen": {
        "reference": "Specimen/a70e46fffb8c68f2c35dd1918786f61e59153831a4c73d69f74999c2a338de1f"
      }
    },
    "request": {
      "method": "PUT",
      "url": "Observation/2f4e0120872416b6df2ef1f08fe6af9df50afd3f04e6dcece4ac97bfdd924f0a"
    }
  }, {
    "fullUrl": "Observation/893f713e323962ce4a601b7f7d36e4fed15da9ca8eb4070fee83b87365c7b0bd",
    "resource": {
      "resourceType": "Observation",
      "id": "893f713e323962ce4a601b7f7d36e4fed15da9ca8eb4070fee83b87365c7b0bd",
      "meta": {
        "profile": [ "https://www.medizininformatik-initiative.de/fhir/ext/modul-onko/StructureDefinition/mii-pr-onko-anzahl-untersuchte-lymphknoten" ]
      },
      "identifier": [ {
        "system": "https://bzkf.github.io/obds-to-fhir/identifiers/lymphknotenuntersuchung-observation-id",
        "value": "521-untersucht"
      } ],
      "status": "final",
      "category": [ {
        "coding": [ {
          "system": "http://terminology.hl7.org/CodeSystem/observation-category",
          "code": "laboratory"
        } ]
      } ],
      "code": {
        "coding": [ {
          "system": "http://loinc.org",
          "version": "2.80",
          "code": "21894-1"
        }, {
          "system": "http://snomed.info/sct",
          "version": "http://snomed.info/sct/900000000000207008/version/20250501",
          "code": "444025001"
        } ]
      },
      "subject": {
        "reference": "Patient/a02e16474896f1d528cac71f2c9b4c45ac3c9028e3a53fb414a1f7882991ee07"
      },
      "focus": [ {
        "reference": "Condition/528cbfb627eff7b031c902f2a97d149f5640d57a28f705fadba22462aae7c408"
      } ],
      "effectiveDateTime": "2020-03-05",
      "valueQuantity": {
        "value": 10,
        "unit": "#",
        "system": "http://unitsofmeasure.org",
        "code": "1"
      },
      "specimen": {
        "reference": "Specimen/a70e46fffb8c68f2c35dd1918786f61e59153831a4c73d69f74999c2a338de1f"
      }
    },
    "request": {
      "method": "PUT",
      "url": "Observation/893f713e323962ce4a601b7f7d36e4fed15da9ca8eb4070fee83b87365c7b0bd"
    }
  }, {
    "fullUrl": "Observation/c1640ab8793c7dcc0deb226deb87ee8ab99c63c8c5ad7256b52fa4e6c41c4b6d",
    "resource": {
      "resourceType": "Observation",
      "id": "c1640ab8793c7dcc0deb226deb87ee8ab99c63c8c5ad7256b52fa4e6c41c4b6d",
      "meta": {
        "profile": [ "https://www.medizininformatik-initiative.de/fhir/ext/modul-onko/StructureDefinition/mii-pr-onko-anzahl-befallene-sentinel-lymphknoten" ]
      },
      "identifier": [ {
        "system": "https://bzkf.github.io/obds-to-fhir/identifiers/lymphknotenuntersuchung-observation-id",
        "value": "521-befallen-sentinel"
      } ],
      "status": "final",
      "category": [ {
        "coding": [ {
          "system": "http://terminology.hl7.org/CodeSystem/observation-category",
          "code": "laboratory"
        } ]
      } ],
      "code": {
        "coding": [ {
          "system": "http://loinc.org",
          "version": "2.80",
          "code": "92832-5"
        }, {
          "system": "http://snomed.info/sct",
          "version": "http://snomed.info/sct/900000000000207008/version/20250501",
          "code": "1264491009"
        } ]
      },
      "subject": {
        "reference": "Patient/a02e16474896f1d528cac71f2c9b4c45ac3c9028e3a53fb414a1f7882991ee07"
      },
      "focus": [ {
        "reference": "Condition/528cbfb627eff7b031c902f2a97d149f5640d57a28f705fadba22462aae7c408"
      } ],
      "effectiveDateTime": "2020-03-05",
      "valueQuantity": {
        "value": 1,
        "unit": "#",
        "system": "http://unitsofmeasure.org",
        "code": "1"
      },
      "specimen": {
        "reference": "Specimen/a70e46fffb8c68f2c35dd1918786f61e59153831a4c73d69f74999c2a338de1f"
      }
    },
    "request": {
      "method": "PUT",
      "url": "Observation/c1640ab8793c7dcc0deb226deb87ee8ab99c63c8c5ad7256b52fa4e6c41c4b6d"
    }
  }, {
    "fullUrl": "Observation/b5b4fd11f7396e29ba8cca0afe8525e6f34af67d52926e307a5be1c07620b546",
    "resource": {
      "resourceType": "Observation",
      "id": "b5b4fd11f7396e29ba8cca0afe8525e6f34af67d52926e307a5be1c07620b546",
      "meta": {
        "profile": [ "https://www.medizininformatik-initiative.de/fhir/ext/modul-onko/StructureDefinition/mii-pr-onko-anzahl-untersuchte-sentinel-lymphknoten" ]
      },
      "identifier": [ {
        "system": "https://bzkf.github.io/obds-to-fhir/identifiers/lymphknotenuntersuchung-observation-id",
        "value": "521-untersucht-sentinel"
      } ],
      "status": "final",
      "category": [ {
        "coding": [ {
          "system": "http://terminology.hl7.org/CodeSystem/observation-category",
          "code": "laboratory"
        } ]
      } ],
      "code": {
        "coding": [ {
          "system": "http://loinc.org",
          "version": "2.80",
          "code": "85347-3"
        }, {
          "system": "http://snomed.info/sct",
          "version": "http://snomed.info/sct/900000000000207008/version/20250501",
          "code": "444411008"
        } ]
      },
      "subject": {
        "reference": "Patient/a02e16474896f1d528cac71f2c9b4c45ac3c9028e3a53fb414a1f7882991ee07"
      },
      "focus": [ {
        "reference": "Condition/528cbfb627eff7b031c902f2a97d149f5640d57a28f705fadba22462aae7c408"
      } ],
      "effectiveDateTime": "2020-03-05",
      "valueQuantity": {
        "value": 2,
        "unit": "#",
        "system": "http://unitsofmeasure.org",
        "code": "1"
      },
      "specimen": {
        "reference": "Specimen/a70e46fffb8c68f2c35dd1918786f61e59153831a4c73d69f74999c2a338de1f"
      }
    },
    "request": {
      "method": "PUT",
      "url": "Observation/b5b4fd11f7396e29ba8cca0afe8525e6f34af67d52926e307a5be1c07620b546"
    }
  }, {
    "fullUrl": "Observation/71eae9714fdea07a7ecedbf4ab1d589c7850660610a82e5bb9b1a304a9c429e8",
    "resource": {
      "resourceType": "Observation",
      "id": "71eae9714fdea07a7ecedbf4ab1d589c7850660610a82e5bb9b1a304a9c429e8",
      "meta": {
        "profile": [ "https://www.medizininformatik-initiative.de/fhir/ext/modul-onko/StructureDefinition/mii-pr-onko-studienteilnahme" ]
      },
      "identifier": [ {
        "system": "https://bzkf.github.io/obds-to-fhir/identifiers/studienteilnahme-observation-id",
        "value": "10_1_DI_1-Studienteilnahme"
      } ],
      "status": "final",
      "code": {
        "coding": [ {
          "system": "http://snomed.info/sct",
          "version": "http://snomed.info/sct/900000000000207008/version/20250501",
          "code": "709491003",
          "display": "Enrollment in clinical trial (procedure)"
        } ]
      },
      "subject": {
        "reference": "Patient/a02e16474896f1d528cac71f2c9b4c45ac3c9028e3a53fb414a1f7882991ee07"
      },
      "focus": [ {
        "reference": "Condition/528cbfb627eff7b031c902f2a97d149f5640d57a28f705fadba22462aae7c408"
      } ],
      "effectiveDateTime": "2020-03-17",
      "valueCodeableConcept": {
        "coding": [ {
          "system": "https://www.medizininformatik-initiative.de/fhir/ext/modul-onko/CodeSystem/mii-cs-onko-studienteilnahme",
          "code": "J",
          "display": "Ja"
        } ]
      }
    },
    "request": {
      "method": "PUT",
      "url": "Observation/71eae9714fdea07a7ecedbf4ab1d589c7850660610a82e5bb9b1a304a9c429e8"
    }
  }, {
    "fullUrl": "Observation/272cffd21fb8c17d970e880c83a7d0595bc4cba9b9812f0b4a739ebc6d069b8c",
    "resource": {
      "resourceType": "Observation",
      "id": "272cffd21fb8c17d970e880c83a7d0595bc4cba9b9812f0b4a739ebc6d069b8c",
      "meta": {
        "profile": [ "https://www.medizininformatik-initiative.de/fhir/ext/modul-onko/StructureDefinition/mii-pr-onko-genetische-variante" ]
      },
      "identifier": [ {
        "system": "https://bzkf.github.io/obds-to-fhir/identifiers/genetische-variante-observation-id",
        "value": "GenetischeAuspraegung-Diagnose-10_1_DI_1-M-0"
      } ],
      "status": "final",
      "category": [ {
        "coding": [ {
          "system": "http://terminology.hl7.org/CodeSystem/observation-category",
          "code": "laboratory",
          "display": "Laboratory"
        } ]
      } ],
      "code": {
        "coding": [ {
          "system": "http://loinc.org",
          "version": "2.80",
          "code": "69548-6",
          "display": "Genetic variant assessment"
        } ]
      },
      "subject": {
        "reference": "Patient/a02e16474896f1d528cac71f2c9b4c45ac3c9028e3a53fb414a1f7882991ee07"
      },
      "focus": [ {
        "reference": "Condition/528cbfb627eff7b031c902f2a97d149f5640d57a28f705fadba22462aae7c408"
      } ],
      "effectiveDateTime": "2020-03-01",
      "interpretation": [ {
        "coding": [ {
          "system": "https://www.medizininformatik-initiative.de/fhir/ext/modul-onko/CodeSystem/mii-cs-onko-genetische-variante-auspraegung",
          "code": "M"
        } ]
      } ],
      "note": [ {
        "text": "BRCA 1"
      } ]
    },
    "request": {
      "method": "PUT",
      "url": "Observation/272cffd21fb8c17d970e880c83a7d0595bc4cba9b9812f0b4a739ebc6d069b8c"
    }
  }, {
    "fullUrl": "Observation/cfcc09d8519640a5e84fcdb3be6f9ac71c53cee1af7642eb9260deff4979e457",
    "resource": {
      "resourceType": "Observation",
      "id": "cfcc09d8519640a5e84fcdb3be6f9ac71c53cee1af7642eb9260deff4979e457",
      "meta": {
        "profile": [ "https://www.medizininformatik-initiative.de/fhir/ext/modul-onko/StructureDefinition/mii-pr-onko-genetische-variante" ]
      },
      "identifier": [ {
        "system": "https://bzkf.github.io/obds-to-fhir/identifiers/genetische-variante-observation-id",
        "value": "GenetischeAuspraegung-Diagnose-10_1_DI_1-1"
      } ],
      "status": "final",
      "category": [ {
        "coding": [ {
          "system": "http://terminology.hl7.org/CodeSystem/observation-category",
          "code": "laboratory",
          "display": "Laboratory"
        } ]
      } ],
      "code": {
        "coding": [ {
          "system": "http://loinc.org",
          "version": "2.80",
          "code": "69548-6",
          "display": "Genetic variant assessment"
        } ]
      },
      "subject": {
        "reference": "Patient/a02e16474896f1d528cac71f2c9b4c45ac3c9028e3a53fb414a1f7882991ee07"
      },
      "focus": [ {
        "reference": "Condition/528cbfb627eff7b031c902f2a97d149f5640d57a28f705fadba22462aae7c408"
      } ],
      "effectiveDateTime": "2020-03-01",
      "interpretation": [ {
        "coding": [ {
          "system": "https://www.medizininformatik-initiative.de/fhir/ext/modul-onko/CodeSystem/mii-cs-onko-genetische-variante-auspraegung",
          "code": "S"
        } ],
        "text": "Translation"
      } ],
      "note": [ {
        "text": "BRCA 2"
      } ]
    },
    "request": {
      "method": "PUT",
      "url": "Observation/cfcc09d8519640a5e84fcdb3be6f9ac71c53cee1af7642eb9260deff4979e457"
    }
  }, {
    "fullUrl": "Observation/681cf52a871f5489ea6f9127294932564bf4cddf5036677df37b9fedfa10dc50",
    "resource": {
      "resourceType": "Observation",
      "id": "681cf52a871f5489ea6f9127294932564bf4cddf5036677df37b9fedfa10dc50",
      "meta": {
        "profile": [ "https://www.medizininformatik-initiative.de/fhir/ext/modul-onko/StructureDefinition/mii-pr-onko-tnm-t-kategorie" ]
      },
      "identifier": [ {
        "system": "https://bzkf.github.io/obds-to-fhir/identifiers/tnm-t-kategorie-observation-id",
        "value": "481-c-2020-03-01-T"
      } ],
      "status": "final",
      "code": {
        "extension": [ {
          "url": "https://www.medizininformatik-initiative.de/fhir/ext/modul-onko/StructureDefinition/mii-ex-onko-tnm-cp-praefix",
          "valueCodeableConcept": {
            "coding": [ {
              "system": "https://www.uicc.org/resources/tnm",
              "code": "c"
            } ]
          }
        } ],
        "coding": [ {
          "system": "http://snomed.info/sct",
          "version": "http://snomed.info/sct/900000000000207008/version/20250501",
          "code": "399504009",
          "display": "cT category (observable entity)"
        } ]
      },
      "subject": {
        "reference": "Patient/a02e16474896f1d528cac71f2c9b4c45ac3c9028e3a53fb414a1f7882991ee07"
      },
      "focus": [ {
        "reference": "Condition/528cbfb627eff7b031c902f2a97d149f5640d57a28f705fadba22462aae7c408"
      } ],
      "effectiveDateTime": "2020-03-01",
      "valueCodeableConcept": {
        "coding": [ {
          "system": "https://www.uicc.org/resources/tnm",
          "code": "T2"
        } ]
      },
      "method": {
        "coding": [ {
          "system": "https://www.medizininformatik-initiative.de/fhir/ext/modul-onko/CodeSystem/mii-cs-onko-tnm-version",
          "code": "8"
        } ]
      }
    },
    "request": {
      "method": "PUT",
      "url": "Observation/681cf52a871f5489ea6f9127294932564bf4cddf5036677df37b9fedfa10dc50"
    }
  }, {
    "fullUrl": "Observation/d212e874655bc4511043727671374a4a860276d4170ff6d41475578ffe751112",
    "resource": {
      "resourceType": "Observation",
      "id": "d212e874655bc4511043727671374a4a860276d4170ff6d41475578ffe751112",
      "meta": {
        "profile": [ "https://www.medizininformatik-initiative.de/fhir/ext/modul-onko/StructureDefinition/mii-pr-onko-tnm-n-kategorie" ]
      },
      "identifier": [ {
        "system": "https://bzkf.github.io/obds-to-fhir/identifiers/tnm-n-kategorie-observation-id",
        "value": "481-c-2020-03-01-N"
      } ],
      "status": "final",
      "code": {
        "extension": [ {
          "url": "https://www.medizininformatik-initiative.de/fhir/ext/modul-onko/StructureDefinition/mii-ex-onko-tnm-cp-praefix",
          "valueCodeableConcept": {
            "coding": [ {
              "system": "https://www.uicc.org/resources/tnm",
              "code": "c"
            } ]
          }
        } ],
        "coding": [ {
          "system": "http://snomed.info/sct",
          "version": "http://snomed.info/sct/900000000000207008/version/20250501",
          "code": "399534004",
          "display": "cN category (observable entity)"
        } ]
      },
      "subject": {
        "reference": "Patient/a02e16474896f1d528cac71f2c9b4c45ac3c9028e3a53fb414a1f7882991ee07"
      },
      "focus": [ {
        "reference": "Condition/528cbfb627eff7b031c902f2a97d149f5640d57a28f705fadba22462aae7c408"
      } ],
      "effectiveDateTime": "2020-03-01",
      "valueCodeableConcept": {
        "coding": [ {
          "system": "https://www.uicc.org/resources/tnm",
          "code": "N1"
        } ]
      },
      "method": {
        "coding": [ {
          "system": "https://www.medizininformatik-initiative.de/fhir/ext/modul-onko/CodeSystem/mii-cs-onko-tnm-version",
          "code": "8"
        } ]
      }
    },
    "request": {
      "method": "PUT",
      "url": "Observation/d212e874655bc4511043727671374a4a860276d4170ff6d41475578ffe751112"
    }
  }, {
    "fullUrl": "Observation/c72fd60c22e939ebd659338abadcd8ef40f0f5149d7e229c56e206a8669c720f",
    "resource": {
      "resourceType": "Observation",
      "id": "c72fd60c22e939ebd659338abadcd8ef40f0f5149d7e229c56e206a8669c720f",
      "meta": {
        "profile": [ "https://www.medizininformatik-initiative.de/fhir/ext/modul-onko/StructureDefinition/mii-pr-onko-tnm-m-kategorie" ]
      },
      "identifier": [ {
        "system": "https://bzkf.github.io/obds-to-fhir/identifiers/tnm-m-kategorie-observation-id",
        "value": "481-c-2020-03-01-M"
      } ],
      "status": "final",
      "code": {
        "extension": [ {
          "url": "https://www.medizininformatik-initiative.de/fhir/ext/modul-onko/StructureDefinition/mii-ex-onko-tnm-cp-praefix",
          "valueCodeableConcept": {
            "coding": [ {
              "system": "https://www.uicc.org/resources/tnm",
              "code": "c"
            } ]
          }
        } ],
        "coding": [ {
          "system": "http://snomed.info/sct",
          "version": "http://snomed.info/sct/900000000000207008/version/20250501",
          "code": "399387003",
          "display": "cM category (observable entity)"
        } ]
      },
      "subject": {
        "reference": "Patient/a02e16474896f1d528cac71f2c9b4c45ac3c9028e3a53fb414a1f7882991ee07"
      },
      "focus": [ {
        "reference": "Condition/528cbfb627eff7b031c902f2a97d149f5640d57a28f705fadba22462aae7c408"
      } ],
      "effectiveDateTime": "2020-03-01",
      "valueCodeableConcept": {
        "coding": [ {
          "system": "https://www.uicc.org/resources/tnm",
          "code": "M0"
        } ]
      },
      "method": {
        "coding": [ {
          "system": "https://www.medizininformatik-initiative.de/fhir/ext/modul-onko/CodeSystem/mii-cs-onko-tnm-version",
          "code": "8"
        } ]
      }
    },
    "request": {
      "method": "PUT",
      "url": "Observation/c72fd60c22e939ebd659338abadcd8ef40f0f5149d7e229c56e206a8669c720f"
    }
  }, {
    "fullUrl": "Observation/90170e38d4096adec0ca65a55cdf57974b58a54f5208479ff6161c0ffad4058b",
    "resource": {
      "resourceType": "Observation",
      "id": "90170e38d4096adec0ca65a55cdf57974b58a54f5208479ff6161c0ffad4058b",
      "meta": {
        "profile": [ "https://www.medizininformatik-initiative.de/fhir/ext/modul-onko/StructureDefinition/mii-pr-onko-tnm-m-symbol" ]
      },
      "identifier": [ {
        "system": "https://bzkf.github.io/obds-to-fhir/identifiers/tnm-m-symbol-observation-id",
        "value": "481-c-2020-03-01-m"
      } ],
      "status": "final",
      "code": {
        "coding": [ {
          "system": "http://loinc.org",
          "version": "2.80",
          "code": "42030-7",
          "display": "Multiple tumors reported as single primary Cancer"
        } ]
      },
      "subject": {
        "reference": "Patient/a02e16474896f1d528cac71f2c9b4c45ac3c9028e3a53fb414a1f7882991ee07"
      },
      "focus": [ {
        "reference": "Condition/528cbfb627eff7b031c902f2a97d149f5640d57a28f705fadba22462aae7c408"
      } ],
      "effectiveDateTime": "2020-03-01",
      "valueCodeableConcept": {
        "coding": [ {
          "system": "https://www.uicc.org/resources/tnm",
          "code": "m"
        } ]
      },
      "method": {
        "coding": [ {
          "system": "https://www.medizininformatik-initiative.de/fhir/ext/modul-onko/CodeSystem/mii-cs-onko-tnm-version",
          "code": "8"
        } ]
      }
    },
    "request": {
      "method": "PUT",
      "url": "Observation/90170e38d4096adec0ca65a55cdf57974b58a54f5208479ff6161c0ffad4058b"
    }
  }, {
    "fullUrl": "Observation/02e84daced50f1eac5a937132f922c916dc99efa441478f2658621ab84741450",
    "resource": {
      "resourceType": "Observation",
      "id": "02e84daced50f1eac5a937132f922c916dc99efa441478f2658621ab84741450",
      "meta": {
        "profile": [ "https://www.medizininformatik-initiative.de/fhir/ext/modul-onko/StructureDefinition/mii-pr-onko-tnm-klassifikation" ]
      },
      "identifier": [ {
        "system": "https://bzkf.github.io/obds-to-fhir/identifiers/tnm-grouping-observation-id",
        "value": "481-c-2020-03-01"
      } ],
      "status": "final",
      "code": {
        "coding": [ {
          "system": "http://snomed.info/sct",
          "version": "http://snomed.info/sct/900000000000207008/version/20250501",
          "code": "399537006",
          "display": "Clinical TNM stage grouping"
        } ]
      },
      "subject": {
        "reference": "Patient/a02e16474896f1d528cac71f2c9b4c45ac3c9028e3a53fb414a1f7882991ee07"
      },
      "focus": [ {
        "reference": "Condition/528cbfb627eff7b031c902f2a97d149f5640d57a28f705fadba22462aae7c408"
      } ],
      "effectiveDateTime": "2020-03-01",
      "valueCodeableConcept": {
        "coding": [ {
          "system": "https://www.uicc.org/resources/tnm",
          "code": "IV",
          "display": "Stadium IV"
        } ]
      },
      "method": {
        "coding": [ {
          "system": "https://www.medizininformatik-initiative.de/fhir/ext/modul-onko/CodeSystem/mii-cs-onko-tnm-version",
          "code": "8"
        } ]
      },
      "hasMember": [ {
        "reference": "Observation/681cf52a871f5489ea6f9127294932564bf4cddf5036677df37b9fedfa10dc50"
      }, {
        "reference": "Observation/d212e874655bc4511043727671374a4a860276d4170ff6d41475578ffe751112"
      }, {
        "reference": "Observation/c72fd60c22e939ebd659338abadcd8ef40f0f5149d7e229c56e206a8669c720f"
      }, {
        "reference": "Observation/90170e38d4096adec0ca65a55cdf57974b58a54f5208479ff6161c0ffad4058b"
      } ]
    },
    "request": {
      "method": "PUT",
      "url": "Observation/02e84daced50f1eac5a937132f922c916dc99efa441478f2658621ab84741450"
    }
  }, {
    "fullUrl": "Observation/a95a081d67db5d491383f60561e247e6e8604f80bf86d01bed719a9049bd6252",
    "resource": {
      "resourceType": "Observation",
      "id": "a95a081d67db5d491383f60561e247e6e8604f80bf86d01bed719a9049bd6252",
      "meta": {
        "profile": [ "https://www.medizininformatik-initiative.de/fhir/ext/modul-onko/StructureDefinition/mii-pr-onko-tnm-t-kategorie" ]
      },
      "identifier": [ {
        "system": "https://bzkf.github.io/obds-to-fhir/identifiers/tnm-t-kategorie-observation-id",
        "value": "482-p-2020-03-05-T"
      } ],
      "status": "final",
      "code": {
        "extension": [ {
          "url": "https://www.medizininformatik-initiative.de/fhir/ext/modul-onko/StructureDefinition/mii-ex-onko-tnm-cp-praefix",
          "valueCodeableConcept": {
            "coding": [ {
              "system": "https://www.uicc.org/resources/tnm",
              "code": "p"
            } ]
          }
        } ],
        "coding": [ {
          "system": "http://snomed.info/sct",
          "version": "http://snomed.info/sct/900000000000207008/version/20250501",
          "code": "384625004",
          "display": "pT category (observable entity)"
        } ]
      },
      "subject": {
        "reference": "Patient/a02e16474896f1d528cac71f2c9b4c45ac3c9028e3a53fb414a1f7882991ee07"
      },
      "focus": [ {
        "reference": "Condition/528cbfb627eff7b031c902f2a97d149f5640d57a28f705fadba22462aae7c408"
      } ],
      "effectiveDateTime": "2020-03-05",
      "valueCodeableConcept": {
        "coding": [ {
          "system": "https://www.uicc.org/resources/tnm",
          "code": "T2"
        } ]
      },
      "method": {
        "coding": [ {
          "system": "https://www.medizininformatik-initiative.de/fhir/ext/modul-onko/CodeSystem/mii-cs-onko-tnm-version",
          "code": "8"
        } ]
      }
    },
    "request": {
      "method": "PUT",
      "url": "Observation/a95a081d67db5d491383f60561e247e6e8604f80bf86d01bed719a9049bd6252"
    }
  }, {
    "fullUrl": "Observation/d22d18935c7cd8898d956f505d32a9cc3acaeb1256aa4a16977a27a221a5ec67",
    "resource": {
      "resourceType": "Observation",
      "id": "d22d18935c7cd8898d956f505d32a9cc3acaeb1256aa4a16977a27a221a5ec67",
      "meta": {
        "profile": [ "https://www.medizininformatik-initiative.de/fhir/ext/modul-onko/StructureDefinition/mii-pr-onko-tnm-n-kategorie" ]
      },
      "identifier": [ {
        "system": "https://bzkf.github.io/obds-to-fhir/identifiers/tnm-n-kategorie-observation-id",
        "value": "482-p-2020-03-05-N"
      } ],
      "status": "final",
      "code": {
        "extension": [ {
          "url": "https://www.medizininformatik-initiative.de/fhir/ext/modul-onko/StructureDefinition/mii-ex-onko-tnm-cp-praefix",
          "valueCodeableConcept": {
            "coding": [ {
              "system": "https://www.uicc.org/resources/tnm",
              "code": "p"
            } ]
          }
        } ],
        "coding": [ {
          "system": "http://snomed.info/sct",
          "version": "http://snomed.info/sct/900000000000207008/version/20250501",
          "code": "371494008",
          "display": "pN category (observable entity)"
        } ]
      },
      "subject": {
        "reference": "Patient/a02e16474896f1d528cac71f2c9b4c45ac3c9028e3a53fb414a1f7882991ee07"
      },
      "focus": [ {
        "reference": "Condition/528cbfb627eff7b031c902f2a97d149f5640d57a28f705fadba22462aae7c408"
      } ],
      "effectiveDateTime": "2020-03-05",
      "valueCodeableConcept": {
        "coding": [ {
          "system": "https://www.uicc.org/resources/tnm",
          "code": "N1"
        } ]
      },
      "method": {
        "coding": [ {
          "system": "https://www.medizininformatik-initiative.de/fhir/ext/modul-onko/CodeSystem/mii-cs-onko-tnm-version",
          "code": "8"
        } ]
      }
    },
    "request": {
      "method": "PUT",
      "url": "Observation/d22d18935c7cd8898d956f505d32a9cc3acaeb1256aa4a16977a27a221a5ec67"
    }
  }, {
    "fullUrl": "Observation/533ea4d3420dbb60ac98ee1d351ca5f6d5ebacbd07360e188f5f5618e63af37d",
    "resource": {
      "resourceType": "Observation",
      "id": "533ea4d3420dbb60ac98ee1d351ca5f6d5ebacbd07360e188f5f5618e63af37d",
      "meta": {
        "profile": [ "https://www.medizininformatik-initiative.de/fhir/ext/modul-onko/StructureDefinition/mii-pr-onko-tnm-m-kategorie" ]
      },
      "identifier": [ {
        "system": "https://bzkf.github.io/obds-to-fhir/identifiers/tnm-m-kategorie-observation-id",
        "value": "482-p-2020-03-05-M"
      } ],
      "status": "final",
      "code": {
        "extension": [ {
          "url": "https://www.medizininformatik-initiative.de/fhir/ext/modul-onko/StructureDefinition/mii-ex-onko-tnm-cp-praefix",
          "valueCodeableConcept": {
            "coding": [ {
              "system": "https://www.uicc.org/resources/tnm",
              "code": "p"
            } ]
          }
        } ],
        "coding": [ {
          "system": "http://snomed.info/sct",
          "version": "http://snomed.info/sct/900000000000207008/version/20250501",
          "code": "371497001",
          "display": "pM category (observable entity)"
        } ]
      },
      "subject": {
        "reference": "Patient/a02e16474896f1d528cac71f2c9b4c45ac3c9028e3a53fb414a1f7882991ee07"
      },
      "focus": [ {
        "reference": "Condition/528cbfb627eff7b031c902f2a97d149f5640d57a28f705fadba22462aae7c408"
      } ],
      "effectiveDateTime": "2020-03-05",
      "valueCodeableConcept": {
        "coding": [ {
          "system": "https://www.uicc.org/resources/tnm",
          "code": "M1"
        } ]
      },
      "method": {
        "coding": [ {
          "system": "https://www.medizininformatik-initiative.de/fhir/ext/modul-onko/CodeSystem/mii-cs-onko-tnm-version",
          "code": "8"
        } ]
      }
    },
    "request": {
      "method": "PUT",
      "url": "Observation/533ea4d3420dbb60ac98ee1d351ca5f6d5ebacbd07360e188f5f5618e63af37d"
    }
  }, {
    "fullUrl": "Observation/18af7d35660e7ea8e4ad99ba2180f2b44efdab6291e2a5559d4ed6cda8713511",
    "resource": {
      "resourceType": "Observation",
      "id": "18af7d35660e7ea8e4ad99ba2180f2b44efdab6291e2a5559d4ed6cda8713511",
      "meta": {
        "profile": [ "https://www.medizininformatik-initiative.de/fhir/ext/modul-onko/StructureDefinition/mii-pr-onko-tnm-m-symbol" ]
      },
      "identifier": [ {
        "system": "https://bzkf.github.io/obds-to-fhir/identifiers/tnm-m-symbol-observation-id",
        "value": "482-p-2020-03-05-m"
      } ],
      "status": "final",
      "code": {
        "coding": [ {
          "system": "http://loinc.org",
          "version": "2.80",
          "code": "42030-7",
          "display": "Multiple tumors reported as single primary Cancer"
        } ]
      },
      "subject": {
        "reference": "Patient/a02e16474896f1d528cac71f2c9b4c45ac3c9028e3a53fb414a1f7882991ee07"
      },
      "focus": [ {
        "reference": "Condition/528cbfb627eff7b031c902f2a97d149f5640d57a28f705fadba22462aae7c408"
      } ],
      "effectiveDateTime": "2020-03-05",
      "valueCodeableConcept": {
        "coding": [ {
          "system": "https://www.uicc.org/resources/tnm",
          "code": "3"
        } ]
      },
      "method": {
        "coding": [ {
          "system": "https://www.medizininformatik-initiative.de/fhir/ext/modul-onko/CodeSystem/mii-cs-onko-tnm-version",
          "code": "8"
        } ]
      }
    },
    "request": {
      "method": "PUT",
      "url": "Observation/18af7d35660e7ea8e4ad99ba2180f2b44efdab6291e2a5559d4ed6cda8713511"
    }
  }, {
    "fullUrl": "Observation/f048922a5c4636d6168af130c9636930b112a827671e5034dd661a4c096e3c90",
    "resource": {
      "resourceType": "Observation",
      "id": "f048922a5c4636d6168af130c9636930b112a827671e5034dd661a4c096e3c90",
      "meta": {
        "profile": [ "https://www.medizininformatik-initiative.de/fhir/ext/modul-onko/StructureDefinition/mii-pr-onko-tnm-l-kategorie" ]
      },
      "identifier": [ {
        "system": "https://bzkf.github.io/obds-to-fhir/identifiers/tnm-l-kategorie-observation-id",
        "value": "482-p-2020-03-05-L"
      } ],
      "status": "final",
      "code": {
        "coding": [ {
          "system": "http://snomed.info/sct",
          "version": "http://snomed.info/sct/900000000000207008/version/20250501",
          "code": "395715009",
          "display": "Status of lymphatic (small vessel) invasion by tumor (observable entity)"
        } ]
      },
      "subject": {
        "reference": "Patient/a02e16474896f1d528cac71f2c9b4c45ac3c9028e3a53fb414a1f7882991ee07"
      },
      "focus": [ {
        "reference": "Condition/528cbfb627eff7b031c902f2a97d149f5640d57a28f705fadba22462aae7c408"
      } ],
      "effectiveDateTime": "2020-03-05",
      "valueCodeableConcept": {
        "coding": [ {
          "system": "https://www.uicc.org/resources/tnm",
          "code": "LX"
        } ]
      },
      "method": {
        "coding": [ {
          "system": "https://www.medizininformatik-initiative.de/fhir/ext/modul-onko/CodeSystem/mii-cs-onko-tnm-version",
          "code": "8"
        } ]
      }
    },
    "request": {
      "method": "PUT",
      "url": "Observation/f048922a5c4636d6168af130c9636930b112a827671e5034dd661a4c096e3c90"
    }
  }, {
    "fullUrl": "Observation/83555d1ab576d4f95e4714927bdeb934342cd25ae33e948395c211dfbec5b7d1",
    "resource": {
      "resourceType": "Observation",
      "id": "83555d1ab576d4f95e4714927bdeb934342cd25ae33e948395c211dfbec5b7d1",
      "meta": {
        "profile": [ "https://www.medizininformatik-initiative.de/fhir/ext/modul-onko/StructureDefinition/mii-pr-onko-tnm-pn-kategorie" ]
      },
      "identifier": [ {
        "system": "https://bzkf.github.io/obds-to-fhir/identifiers/tnm-pn-kategorie-observation-id",
        "value": "482-p-2020-03-05-Pn"
      } ],
      "status": "final",
      "code": {
        "coding": [ {
          "system": "http://snomed.info/sct",
          "version": "http://snomed.info/sct/900000000000207008/version/20250501",
          "code": "371513001",
          "display": "Presence of direct invasion by primary malignant neoplasm to nerve (observable entity)"
        } ]
      },
      "subject": {
        "reference": "Patient/a02e16474896f1d528cac71f2c9b4c45ac3c9028e3a53fb414a1f7882991ee07"
      },
      "focus": [ {
        "reference": "Condition/528cbfb627eff7b031c902f2a97d149f5640d57a28f705fadba22462aae7c408"
      } ],
      "effectiveDateTime": "2020-03-05",
      "valueCodeableConcept": {
        "coding": [ {
          "system": "https://www.uicc.org/resources/tnm",
          "code": "PnX"
        } ]
      },
      "method": {
        "coding": [ {
          "system": "https://www.medizininformatik-initiative.de/fhir/ext/modul-onko/CodeSystem/mii-cs-onko-tnm-version",
          "code": "8"
        } ]
      }
    },
    "request": {
      "method": "PUT",
      "url": "Observation/83555d1ab576d4f95e4714927bdeb934342cd25ae33e948395c211dfbec5b7d1"
    }
  }, {
    "fullUrl": "Observation/0c3d24036fa04bc04f90ebbdfe2fd6996bc2607e34d60accea58408900b476fa",
    "resource": {
      "resourceType": "Observation",
      "id": "0c3d24036fa04bc04f90ebbdfe2fd6996bc2607e34d60accea58408900b476fa",
      "meta": {
        "profile": [ "https://www.medizininformatik-initiative.de/fhir/ext/modul-onko/StructureDefinition/mii-pr-onko-tnm-v-kategorie" ]
      },
      "identifier": [ {
        "system": "https://bzkf.github.io/obds-to-fhir/identifiers/tnm-v-kategorie-observation-id",
        "value": "482-p-2020-03-05-V"
      } ],
      "status": "final",
      "code": {
        "coding": [ {
          "system": "http://snomed.info/sct",
          "version": "http://snomed.info/sct/900000000000207008/version/20250501",
          "code": "371493002",
          "display": "Status of venous (large vessel) invasion by tumor (observable entity)"
        } ]
      },
      "subject": {
        "reference": "Patient/a02e16474896f1d528cac71f2c9b4c45ac3c9028e3a53fb414a1f7882991ee07"
      },
      "focus": [ {
        "reference": "Condition/528cbfb627eff7b031c902f2a97d149f5640d57a28f705fadba22462aae7c408"
      } ],
      "effectiveDateTime": "2020-03-05",
      "valueCodeableConcept": {
        "coding": [ {
          "system": "https://www.uicc.org/resources/tnm",
          "code": "VX"
        } ]
      },
      "method": {
        "coding": [ {
          "system": "https://www.medizininformatik-initiative.de/fhir/ext/modul-onko/CodeSystem/mii-cs-onko-tnm-version",
          "code": "8"
        } ]
      }
    },
    "request": {
      "method": "PUT",
      "url": "Observation/0c3d24036fa04bc04f90ebbdfe2fd6996bc2607e34d60accea58408900b476fa"
    }
  }, {
    "fullUrl": "Observation/947d415bd95d6c184a15382b69893ccf22043acd1c640f389de173906271a273",
    "resource": {
      "resourceType": "Observation",
      "id": "947d415bd95d6c184a15382b69893ccf22043acd1c640f389de173906271a273",
      "meta": {
        "profile": [ "https://www.medizininformatik-initiative.de/fhir/ext/modul-onko/StructureDefinition/mii-pr-onko-tnm-klassifikation" ]
      },
      "identifier": [ {
        "system": "https://bzkf.github.io/obds-to-fhir/identifiers/tnm-grouping-observation-id",
        "value": "482-p-2020-03-05"
      } ],
      "status": "final",
      "code": {
        "coding": [ {
          "system": "http://snomed.info/sct",
          "version": "http://snomed.info/sct/900000000000207008/version/20250501",
          "code": "399588009",
          "display": "Pathologic TNM stage grouping"
        } ]
      },
      "subject": {
        "reference": "Patient/a02e16474896f1d528cac71f2c9b4c45ac3c9028e3a53fb414a1f7882991ee07"
      },
      "focus": [ {
        "reference": "Condition/528cbfb627eff7b031c902f2a97d149f5640d57a28f705fadba22462aae7c408"
      } ],
      "effectiveDateTime": "2020-03-05",
      "valueCodeableConcept": {
        "coding": [ {
          "system": "https://www.uicc.org/resources/tnm",
          "code": "IV",
          "display": "Stadium IV"
        } ]
      },
      "method": {
        "coding": [ {
          "system": "https://www.medizininformatik-initiative.de/fhir/ext/modul-onko/CodeSystem/mii-cs-onko-tnm-version",
          "code": "8"
        } ]
      },
      "hasMember": [ {
        "reference": "Observation/a95a081d67db5d491383f60561e247e6e8604f80bf86d01bed719a9049bd6252"
      }, {
        "reference": "Observation/d22d18935c7cd8898d956f505d32a9cc3acaeb1256aa4a16977a27a221a5ec67"
      }, {
        "reference": "Observation/533ea4d3420dbb60ac98ee1d351ca5f6d5ebacbd07360e188f5f5618e63af37d"
      }, {
        "reference": "Observation/18af7d35660e7ea8e4ad99ba2180f2b44efdab6291e2a5559d4ed6cda8713511"
      }, {
        "reference": "Observation/f048922a5c4636d6168af130c9636930b112a827671e5034dd661a4c096e3c90"
      }, {
        "reference": "Observation/83555d1ab576d4f95e4714927bdeb934342cd25ae33e948395c211dfbec5b7d1"
      }, {
        "reference": "Observation/0c3d24036fa04bc04f90ebbdfe2fd6996bc2607e34d60accea58408900b476fa"
      } ]
    },
    "request": {
      "method": "PUT",
      "url": "Observation/947d415bd95d6c184a15382b69893ccf22043acd1c640f389de173906271a273"
    }
  }, {
    "fullUrl": "List/483f7b24cb55c6ac1fb6e384e77182e488eab7ee9c8b7c9200350db806a0b0bb",
    "resource": {
      "resourceType": "List",
      "id": "483f7b24cb55c6ac1fb6e384e77182e488eab7ee9c8b7c9200350db806a0b0bb",
      "meta": {
        "profile": [ "https://www.medizininformatik-initiative.de/fhir/ext/modul-onko/StructureDefinition/mii-pr-onko-liste-evidenz-erstdiagnose" ]
      },
      "identifier": [ {
        "system": "https://bzkf.github.io/obds-to-fhir/identifiers/erstdiagnose-evidenz-list-id",
        "value": "10-101"
      } ],
      "status": "current",
      "mode": "snapshot",
      "title": "Liste der Evidenz zum Erstdiagnosezeitpunkt",
      "subject": {
        "reference": "Patient/a02e16474896f1d528cac71f2c9b4c45ac3c9028e3a53fb414a1f7882991ee07"
      },
      "entry": [ {
        "item": {
          "reference": "Observation/6ff37297dfe99bf538549b388e8a9dad85756899519ef6e8e1775da5273bac8d"
        }
      }, {
        "item": {
          "reference": "Observation/ce9ac4ea209e8287513499093af316c9a589459a575f7fa6c4499530ceaed1da"
        }
      }, {
        "item": {
          "reference": "Specimen/a70e46fffb8c68f2c35dd1918786f61e59153831a4c73d69f74999c2a338de1f"
        }
      }, {
        "item": {
          "reference": "Observation/6ea332d7b46040d412e05087da2ac37440168972e3349691d75f49ef3f749a66"
        }
      }, {
        "item": {
          "reference": "Observation/2f4e0120872416b6df2ef1f08fe6af9df50afd3f04e6dcece4ac97bfdd924f0a"
        }
      }, {
        "item": {
          "reference": "Observation/893f713e323962ce4a601b7f7d36e4fed15da9ca8eb4070fee83b87365c7b0bd"
        }
      }, {
        "item": {
          "reference": "Observation/c1640ab8793c7dcc0deb226deb87ee8ab99c63c8c5ad7256b52fa4e6c41c4b6d"
        }
      }, {
        "item": {
          "reference": "Observation/b5b4fd11f7396e29ba8cca0afe8525e6f34af67d52926e307a5be1c07620b546"
        }
      }, {
        "item": {
          "reference": "Observation/71eae9714fdea07a7ecedbf4ab1d589c7850660610a82e5bb9b1a304a9c429e8"
        }
      }, {
        "item": {
          "reference": "Observation/272cffd21fb8c17d970e880c83a7d0595bc4cba9b9812f0b4a739ebc6d069b8c"
        }
      }, {
        "item": {
          "reference": "Observation/cfcc09d8519640a5e84fcdb3be6f9ac71c53cee1af7642eb9260deff4979e457"
        }
      }, {
        "item": {
          "reference": "Observation/681cf52a871f5489ea6f9127294932564bf4cddf5036677df37b9fedfa10dc50"
        }
      }, {
        "item": {
          "reference": "Observation/d212e874655bc4511043727671374a4a860276d4170ff6d41475578ffe751112"
        }
      }, {
        "item": {
          "reference": "Observation/c72fd60c22e939ebd659338abadcd8ef40f0f5149d7e229c56e206a8669c720f"
        }
      }, {
        "item": {
          "reference": "Observation/90170e38d4096adec0ca65a55cdf57974b58a54f5208479ff6161c0ffad4058b"
        }
      }, {
        "item": {
          "reference": "Observation/02e84daced50f1eac5a937132f922c916dc99efa441478f2658621ab84741450"
        }
      }, {
        "item": {
          "reference": "Observation/a95a081d67db5d491383f60561e247e6e8604f80bf86d01bed719a9049bd6252"
        }
      }, {
        "item": {
          "reference": "Observation/d22d18935c7cd8898d956f505d32a9cc3acaeb1256aa4a16977a27a221a5ec67"
        }
      }, {
        "item": {
          "reference": "Observation/533ea4d3420dbb60ac98ee1d351ca5f6d5ebacbd07360e188f5f5618e63af37d"
        }
      }, {
        "item": {
          "reference": "Observation/18af7d35660e7ea8e4ad99ba2180f2b44efdab6291e2a5559d4ed6cda8713511"
        }
      }, {
        "item": {
          "reference": "Observation/f048922a5c4636d6168af130c9636930b112a827671e5034dd661a4c096e3c90"
        }
      }, {
        "item": {
          "reference": "Observation/83555d1ab576d4f95e4714927bdeb934342cd25ae33e948395c211dfbec5b7d1"
        }
      }, {
        "item": {
          "reference": "Observation/0c3d24036fa04bc04f90ebbdfe2fd6996bc2607e34d60accea58408900b476fa"
        }
      }, {
        "item": {
          "reference": "Observation/947d415bd95d6c184a15382b69893ccf22043acd1c640f389de173906271a273"
        }
      } ]
    },
    "request": {
      "method": "PUT",
      "url": "List/483f7b24cb55c6ac1fb6e384e77182e488eab7ee9c8b7c9200350db806a0b0bb"
    }
  }, {
    "fullUrl": "Observation/7d6cfaae048e593bc9538124062743dc6c1fd2c433854ace4a41fed8a2d5b9a8",
    "resource": {
      "resourceType": "Observation",
      "id": "7d6cfaae048e593bc9538124062743dc6c1fd2c433854ace4a41fed8a2d5b9a8",
      "meta": {
        "profile": [ "https://www.medizininformatik-initiative.de/fhir/ext/modul-onko/StructureDefinition/mii-pr-onko-allgemeiner-leistungszustand-ecog" ]
      },
      "identifier": [ {
        "system": "https://bzkf.github.io/obds-to-fhir/identifiers/allgemeiner-leistungszustand-ecog-id",
        "value": "ECOG-10_2_DI_1"
      } ],
      "status": "final",
      "code": {
        "coding": [ {
          "system": "http://snomed.info/sct",
          "version": "http://snomed.info/sct/900000000000207008/version/20250501",
          "code": "423740007",
          "display": "Eastern Cooperative Oncology Group performance status (observable entity)"
        } ]
      },
      "subject": {
        "reference": "Patient/a02e16474896f1d528cac71f2c9b4c45ac3c9028e3a53fb414a1f7882991ee07"
      },
      "focus": [ {
        "reference": "Condition/dec60bae0a707f01b77ab2ef8f22d53d4b352636c9cf80b1081ad6aa1252cb1d"
      } ],
      "effectiveDateTime": "2020-01-01",
      "valueCodeableConcept": {
        "coding": [ {
          "system": "https://www.medizininformatik-initiative.de/fhir/ext/modul-onko/CodeSystem/mii-cs-onko-allgemeiner-leistungszustand-ecog",
          "code": "0",
          "display": "Normale, uneingeschränkte Aktivität wie vor der Erkrankung (90 - 100 % nach Karnofsky)"
        } ]
      }
    },
    "request": {
      "method": "PUT",
      "url": "Observation/7d6cfaae048e593bc9538124062743dc6c1fd2c433854ace4a41fed8a2d5b9a8"
    }
  }, {
    "fullUrl": "List/e5e5552bba684d718c523f91780048c6e7851a3948985fcac56ef6781bca1700",
    "resource": {
      "resourceType": "List",
      "id": "e5e5552bba684d718c523f91780048c6e7851a3948985fcac56ef6781bca1700",
      "meta": {
        "profile": [ "https://www.medizininformatik-initiative.de/fhir/ext/modul-onko/StructureDefinition/mii-pr-onko-liste-evidenz-erstdiagnose" ]
      },
      "identifier": [ {
        "system": "https://bzkf.github.io/obds-to-fhir/identifiers/erstdiagnose-evidenz-list-id",
        "value": "10-102"
      } ],
      "status": "current",
      "mode": "snapshot",
      "title": "Liste der Evidenz zum Erstdiagnosezeitpunkt",
      "subject": {
        "reference": "Patient/a02e16474896f1d528cac71f2c9b4c45ac3c9028e3a53fb414a1f7882991ee07"
      },
      "entry": [ {
        "item": {
          "reference": "Observation/7d6cfaae048e593bc9538124062743dc6c1fd2c433854ace4a41fed8a2d5b9a8"
        }
      } ]
    },
    "request": {
      "method": "PUT",
      "url": "List/e5e5552bba684d718c523f91780048c6e7851a3948985fcac56ef6781bca1700"
    }
  }, {
    "fullUrl": "Observation/9faa00bb7f854297a496a607f353b5e62d1e0b1b8f92a5d3d7abb2a0c045d23e",
    "resource": {
      "resourceType": "Observation",
      "id": "9faa00bb7f854297a496a607f353b5e62d1e0b1b8f92a5d3d7abb2a0c045d23e",
      "meta": {
        "profile": [ "https://www.medizininformatik-initiative.de/fhir/ext/modul-onko/StructureDefinition/mii-pr-onko-allgemeiner-leistungszustand-ecog" ]
      },
      "identifier": [ {
        "system": "https://bzkf.github.io/obds-to-fhir/identifiers/allgemeiner-leistungszustand-ecog-id",
        "value": "ECOG-10_3_DI_1"
      } ],
      "status": "final",
      "code": {
        "coding": [ {
          "system": "http://snomed.info/sct",
          "version": "http://snomed.info/sct/900000000000207008/version/20250501",
          "code": "423740007",
          "display": "Eastern Cooperative Oncology Group performance status (observable entity)"
        } ]
      },
      "subject": {
        "reference": "Patient/a02e16474896f1d528cac71f2c9b4c45ac3c9028e3a53fb414a1f7882991ee07"
      },
      "focus": [ {
        "reference": "Condition/778f6d2023c112c28f7c0aaa0bb7693aa3c5b16f87093a7d52f647c7388d4285"
      } ],
      "effectiveDateTime": "2020-03-01",
      "valueCodeableConcept": {
        "coding": [ {
          "system": "https://www.medizininformatik-initiative.de/fhir/ext/modul-onko/CodeSystem/mii-cs-onko-allgemeiner-leistungszustand-ecog",
          "code": "0",
          "display": "Normale, uneingeschränkte Aktivität wie vor der Erkrankung (90 - 100 % nach Karnofsky)"
        } ]
      }
    },
    "request": {
      "method": "PUT",
      "url": "Observation/9faa00bb7f854297a496a607f353b5e62d1e0b1b8f92a5d3d7abb2a0c045d23e"
    }
  }, {
    "fullUrl": "List/2787b4369f4673eeaca5c83bd437fb4fac191101a2abd54fd04c061d575124ff",
    "resource": {
      "resourceType": "List",
      "id": "2787b4369f4673eeaca5c83bd437fb4fac191101a2abd54fd04c061d575124ff",
      "meta": {
        "profile": [ "https://www.medizininformatik-initiative.de/fhir/ext/modul-onko/StructureDefinition/mii-pr-onko-liste-evidenz-erstdiagnose" ]
      },
      "identifier": [ {
        "system": "https://bzkf.github.io/obds-to-fhir/identifiers/erstdiagnose-evidenz-list-id",
        "value": "10-103"
      } ],
      "status": "current",
      "mode": "snapshot",
      "title": "Liste der Evidenz zum Erstdiagnosezeitpunkt",
      "subject": {
        "reference": "Patient/a02e16474896f1d528cac71f2c9b4c45ac3c9028e3a53fb414a1f7882991ee07"
      },
      "entry": [ {
        "item": {
          "reference": "Observation/9faa00bb7f854297a496a607f353b5e62d1e0b1b8f92a5d3d7abb2a0c045d23e"
        }
      } ]
    },
    "request": {
      "method": "PUT",
      "url": "List/2787b4369f4673eeaca5c83bd437fb4fac191101a2abd54fd04c061d575124ff"
    }
  } ]
}
